Folder: Magnetite2026/Fig 6

Note: README.md
# Magnetite2026
Data and technoeconomic analysis supporting the results and discussion for Shekhar et al. 2026

A Jupyter notebook is available to view and modify the model assumptions used to estimate a simplified levelized cost of Fe. 

Cost estimates for the stack and balance-of-plant (BOP) were derived from published data on chlor-alkali and metal-electrowinning processes.

Konovalova, A.; Goldman, A. C.; Shekhar, R.; Triplett, I.; Moutarlier, L. J.; Kwak, M.; Kempler, P. A. Pathways to Electrochemical Ironmaking at Scale Via the Direct Reduction of Fe2 O3. ACS Energy Lett. 2025, 10 (4), 1851–1857. https://doi.org/10.1021/acsenergylett.5c00166

Hofmann, M.; Müller, R.; Christidis, A.; Fischer, P.; Klaucke, F.; Vomberg, S.; Tsatsaronis, G. Flexible and Economical Operation of Chlor‐alkali Process with Subsequent Polyvinyl Chlo-ride Production. AIChE J. 2022, 68 (1), e17480. https://doi.org/10.1002/aic.17480.

Klaucke, F.; Müller, R.; Hofmann, M.; Weigert, J.; Fischer, P.; Vomberg, S.; Tsatsaronis, G.; Repke, J.-U. Chlor-Alkali Process with Subsequent Polyvinyl Chloride Production─Cost Analysis and Economic Evaluation of Demand Response. Ind. Eng. Chem. Res. 2023, 62 (19), 7336–7351. https://doi.org/10.1021/acs.iecr.2c04188.

A simplified levelized cost of iron, X_Fe, was calculated based on the levelized cost of capital and operating costs and an annual revenue for co-sale of Cl2 (Equation 4, Supporting Information)
X_Fe = ∑_i (C_i) -R_Cl2

Raw data is sorted by figures available in the manuscript.
an-Fe2O3 refers to a low surface area hematite sample
pc-Fe2O3 refers to a high surface area hematite sample
bf-Fe2O3 refers to a blast-furnace grade iron ore concentrate
np-Fe3O4 refers to a synthetic magnetite sample
prec-Fe3O4 refers to a reprecipitated iron ore concentrate which was high surface area.

File: Fig 6_bf-Fe3O4.mpt
mode	ox/red	error	control changes	counter inc.	time/s	control/V	Ewe/V	<I>/mA	cycle number	(Q-Qo)/C	I Range	step time/s	P/W
2	1	1	1	0	0.000000000000000E+000	-0.300321	-0.300436	0.00779488	1	0.0000000E+000	41	0.000000000000000E+000	-2.34186e-06
2	1	0	1	0	3.7289	-0.318965	-0.319058	0.000265186	1	2.85458e-06	42	3.6089	-8.46098e-08
2	1	0	0	0	7.5278	-0.33796	-0.33805	5.88647e-05	1	3.08403e-06	42	0.4	-1.98992e-08
2	0	0	0	0	11.3266	-0.356954	-0.357067	-3.94739e-05	1	2.75887e-06	42	4.1988	1.40948e-08
2	0	0	0	0	15.1254	-0.375948	-0.376052	-0.000126234	1	2.12172e-06	42	7.9976	4.74705e-08
2	0	0	0	0	18.9242	-0.394942	-0.395026	-0.000166809	1	1.23727e-06	42	11.7964	6.58939e-08
2	0	0	1	0	22.7231	-0.413936	-0.414023	-0.000225945	1	1.43588e-07	42	15.5953	9.35463e-08
2	0	0	1	0	26.522	-0.432931	-0.433022	-0.000284421	1	-1.16841e-06	42	19.3942	1.2316e-07
2	0	0	1	0	30.3208	-0.451925	-0.452011	-0.000323892	1	-2.69725e-06	42	23.193	1.46403e-07
2	0	0	1	0	34.1196	-0.470919	-0.470994	-0.000390211	1	-4.43208e-06	42	26.9918	1.83787e-07
2	0	0	1	0	37.9184	-0.489913	-0.48999	-0.00045252	1	-6.40313e-06	42	30.7906	2.21731e-07
2	0	0	1	0	41.7173	-0.508908	-0.508964	-0.000515672	1	-8.61444e-06	42	34.5895	2.62459e-07
2	0	0	1	0	45.5161	-0.527901	-0.527985	-0.000594768	1	-1.1144e-05	42	38.3883	3.14029e-07
2	0	0	0	0	49.315	-0.546896	-0.546949	-0.000654503	1	-1.39295e-05	42	42.1872	3.57979e-07
2	0	0	0	0	53.1138	-0.56589	-0.565941	-0.000715692	1	-1.69811e-05	42	45.986	4.05039e-07
2	0	0	0	0	56.9126	-0.584884	-0.584949	-0.00076166	1	-2.02381e-05	42	49.7848	4.45532e-07
2	0	0	0	0	60.7114	-0.603878	-0.603975	-0.000829586	1	-2.36933e-05	42	53.5836	5.01049e-07
2	0	0	1	0	64.5103	-0.622873	-0.622962	-0.000905305	1	-2.7473e-05	42	57.3825	5.63971e-07
2	0	0	1	0	68.3092	-0.641867	-0.641965	-0.000963643	1	-3.1519e-05	42	61.1814	6.18625e-07
2	0	0	1	0	72.108	-0.660861	-0.660955	-0.00106392	1	-3.58173e-05	42	64.9802	7.03201e-07
2	0	0	1	0	75.9068	-0.679855	-0.679939	-0.00116092	1	-4.05568e-05	42	68.779	7.89353e-07
2	0	0	1	0	79.7056	-0.698849	-0.698919	-0.00126399	1	-4.56802e-05	42	72.5778	8.83426e-07
2	0	0	1	0	83.5045	-0.717844	-0.717906	-0.00136877	1	-5.11929e-05	42	76.3767	9.82645e-07
2	0	0	1	0	87.3033	-0.736837	-0.736914	-0.00148185	1	-5.71663e-05	42	80.1755	1.09199e-06
2	0	0	0	0	91.1022	-0.755832	-0.755904	-0.00165246	1	-6.36923e-05	42	83.9744	1.2491e-06
2	0	0	0	0	94.901	-0.774826	-0.774903	-0.00184738	1	-7.10054e-05	42	87.7732	1.43154e-06
2	0	0	0	0	98.6998	-0.79382	-0.79388	-0.00195503	1	-7.88089e-05	42	91.572	1.55206e-06
2	0	0	0	0	102.499	-0.812814	-0.812892	-0.00213105	1	-8.72299e-05	42	95.3708	1.73232e-06
2	0	0	1	0	106.297	-0.831808	-0.8319	-0.00231551	1	-9.62856e-05	42	99.1697	1.92627e-06
2	0	0	1	0	110.096	-0.850803	-0.850879	-0.0025079	1	-0.000106138	42	102.969	2.13392e-06
2	0	0	1	0	113.895	-0.869797	-0.869863	-0.00267351	1	-0.000116631	42	106.767	2.32558e-06
2	0	0	1	0	117.694	-0.888791	-0.888867	-0.0028352	1	-0.00012778	42	110.566	2.52012e-06
2	0	0	1	0	121.493	-0.907785	-0.907846	-0.00306552	1	-0.000139652	42	114.365	2.78302e-06
2	0	0	1	0	125.292	-0.92678	-0.926863	-0.00329834	1	-0.000152462	42	118.164	3.0571e-06
2	0	0	1	0	129.09	-0.945773	-0.945827	-0.00325898	1	-0.000165765	42	121.963	3.08243e-06
2	0	0	0	0	132.889	-0.964768	-0.964839	-0.00327095	1	-0.000178827	42	125.762	3.15594e-06
2	0	0	0	0	136.688	-0.983762	-0.983827	-0.00329868	1	-0.000191947	42	129.56	3.24533e-06
2	0	0	0	0	140.487	-1.00276	-1.00282	-0.00340921	1	-0.000205521	42	133.359	3.41881e-06
2	0	0	0	0	144.286	-1.02175	-1.02181	-0.00351795	1	-0.000219358	42	137.158	3.59469e-06
2	0	0	1	0	148.085	-1.04074	-1.04082	-0.0036854	1	-0.000233779	42	140.957	3.83585e-06
2	0	0	1	0	151.884	-1.05974	-1.05979	-0.00382807	1	-0.000248827	42	144.756	4.05697e-06
2	0	0	1	0	155.682	-1.07873	-1.07878	-0.00395943	1	-0.000264393	42	148.555	4.27136e-06
2	0	0	1	0	159.481	-1.09773	-1.09777	-0.00415476	1	-0.000280656	42	152.353	4.56098e-06
2	0	0	1	0	163.28	-1.11672	-1.11673	-0.00436081	1	-0.000297649	42	156.152	4.86986e-06
2	0	0	1	0	167.079	-1.13572	-1.13577	-0.00472064	1	-0.000315595	42	159.951	5.36159e-06
2	0	0	1	0	170.878	-1.15471	-1.15476	-0.0059586	1	-0.000336554	42	163.75	6.88077e-06
2	0	0	0	0	174.677	-1.1737	-1.17374	-0.00755277	1	-0.000362303	42	167.549	8.86497e-06
2	0	0	0	0	178.495	-1.1928	-1.1928	-0.010535	1	-0.000399302	41	171.368	1.25661e-05
2	0	0	0	0	182.294	-1.21179	-1.21178	-0.0168104	1	-0.000449976	41	175.166	2.03706e-05
2	0	0	0	0	186.093	-1.23079	-1.23081	-0.0324791	1	-0.000531525	41	178.965	3.99756e-05
2	0	0	1	0	189.892	-1.24978	-1.24982	-0.0648393	1	-0.000709151	41	182.764	8.10374e-05
2	0	0	1	0	193.711	-1.26887	-1.2689	-0.109766	1	-0.00104981	40	186.583	0.000139282
2	0	0	1	0	197.51	-1.28787	-1.28789	-0.12957	1	-0.00148194	40	190.382	0.000166872
2	0	0	0	1	201.049	-1.29447	-1.29451	-0.118237	2	-0.00192084	40	193.921	0.000153059
2	0	0	1	1	204.848	-1.27547	-1.2755	-0.0806186	2	-0.00231168	40	197.72	0.000102829
2	0	0	1	1	208.647	-1.25648	-1.25651	-0.0662939	2	-0.00259146	40	201.519	8.32991e-05
2	0	0	1	1	212.446	-1.23748	-1.23752	-0.056373	2	-0.00282344	40	205.318	6.97627e-05
2	0	0	1	1	216.244	-1.21849	-1.21851	-0.0506852	2	-0.00301941	40	209.117	6.17603e-05
2	0	0	1	1	220.063	-1.1994	-1.19944	-0.0398247	2	-0.00318694	41	212.935	4.77672e-05
2	0	0	1	1	223.862	-1.1804	-1.18043	-0.0321085	2	-0.00331953	41	216.734	3.7902e-05
2	0	0	1	1	227.661	-1.16141	-1.16141	-0.0243875	2	-0.00342501	41	220.533	2.83239e-05
2	0	0	0	1	231.46	-1.14241	-1.14246	-0.0181969	2	-0.00350554	41	224.332	2.07893e-05
2	0	0	0	1	235.259	-1.12342	-1.12345	-0.0126511	2	-0.00356312	41	228.131	1.42129e-05
2	0	0	0	1	239.057	-1.10442	-1.10444	-0.00904988	2	-0.00360259	41	231.93	9.99507e-06
2	0	0	0	1	242.856	-1.08543	-1.08547	-0.00609381	2	-0.00363022	41	235.728	6.61467e-06
2	0	0	1	1	246.675	-1.06634	-1.06637	-0.00406836	2	-0.00364823	42	239.547	4.3384e-06
2	0	0	1	1	250.474	-1.04734	-1.04739	-0.0023933	2	-0.00365969	42	243.346	2.50671e-06
2	0	0	1	1	254.273	-1.02835	-1.02838	-0.001422	2	-0.00366601	42	247.145	1.46236e-06
2	0	0	1	1	258.072	-1.00935	-1.00939	-0.000749368	2	-0.00366945	42	250.944	7.56404e-07
2	1	0	1	1	261.87	-0.99036	-0.990403	0.000219027	2	-0.00366994	42	1.1996	-2.16926e-07
2	1	0	1	1	265.669	-0.971366	-0.971428	0.000805047	2	-0.0036674	42	4.9984	-7.82046e-07
2	1	0	1	1	269.468	-0.952371	-0.952409	0.00122867	2	-0.00366302	42	8.7973	-1.17019e-06
2	1	0	1	1	273.267	-0.933378	-0.933436	0.0014159	2	-0.00365725	42	12.5961	-1.32166e-06
2	1	0	0	1	277.066	-0.914383	-0.914424	0.0017392	2	-0.00365089	42	16.395	-1.59037e-06
2	1	0	0	1	280.865	-0.895389	-0.895426	0.00177405	2	-0.00364324	42	20.1938	-1.58853e-06
2	1	0	0	1	284.663	-0.876395	-0.876413	0.00170976	2	-0.00363581	42	23.9926	-1.49846e-06
2	1	0	1	1	288.462	-0.857401	-0.857434	0.00136789	2	-0.00362935	42	27.7914	-1.17287e-06
2	1	0	1	1	292.261	-0.838407	-0.838445	0.0012376	2	-0.00362394	42	31.5903	-1.03766e-06
2	1	0	1	1	296.06	-0.819412	-0.819452	0.00137931	2	-0.00361844	42	35.3892	-1.13028e-06
2	1	0	1	1	299.859	-0.800418	-0.800434	0.00147306	2	-0.00361245	42	39.188	-1.17909e-06
2	1	0	1	1	303.658	-0.781424	-0.781471	0.00148753	2	-0.00360622	42	42.9868	-1.16247e-06
2	1	0	1	1	307.456	-0.76243	-0.762475	0.00142497	2	-0.00360011	42	46.7856	-1.0865e-06
2	1	0	1	1	311.255	-0.743436	-0.743506	0.00141496	2	-0.00359416	42	50.5845	-1.05203e-06
2	1	0	0	1	315.054	-0.724441	-0.7245	0.00130897	2	-0.00358853	42	54.3834	-9.48351e-07
2	1	0	0	1	318.853	-0.705447	-0.70552	0.00124498	2	-0.00358316	42	58.1822	-8.78358e-07
2	1	0	0	1	322.652	-0.686453	-0.686522	0.00118274	2	-0.00357804	42	61.981	-8.1198e-07
2	1	0	0	1	326.451	-0.667459	-0.667526	0.00108858	2	-0.00357322	42	65.7798	-7.26658e-07
2	1	0	1	1	330.249	-0.648464	-0.648522	0.0010127	2	-0.00356879	42	69.5787	-6.5676e-07
2	1	0	1	1	334.048	-0.629471	-0.629545	0.000956921	2	-0.00356459	42	73.3775	-6.02425e-07
2	1	0	1	1	337.847	-0.610476	-0.610521	0.000914041	2	-0.00356059	42	77.1764	-5.58041e-07
2	1	0	1	1	341.646	-0.591482	-0.591561	0.00090236	2	-0.00355671	42	80.9752	-5.33801e-07
2	1	0	1	1	345.445	-0.572488	-0.572535	0.000871456	2	-0.00355287	42	84.774	-4.98938e-07
2	1	0	1	1	349.244	-0.553494	-0.553564	0.000845722	2	-0.00354916	42	88.5728	-4.68161e-07
2	1	0	1	1	353.042	-0.534499	-0.534557	0.000810203	2	-0.00354555	42	92.3717	-4.331e-07
2	1	0	0	1	356.841	-0.515505	-0.515579	0.000774029	2	-0.00354212	42	96.1706	-3.99073e-07
2	1	0	0	1	360.64	-0.496511	-0.496584	0.000797205	2	-0.0035387	42	99.9694	-3.9588e-07
2	1	0	0	1	364.439	-0.477517	-0.477615	0.000863927	2	-0.00353512	42	103.768	-4.12625e-07
2	1	0	0	1	368.238	-0.458523	-0.45861	0.000918816	2	-0.00353132	42	107.567	-4.21378e-07
2	1	0	1	1	372.037	-0.439528	-0.439625	0.000963478	2	-0.00352731	42	111.366	-4.23569e-07
2	1	0	1	1	375.835	-0.420535	-0.42064	0.00103901	2	-0.00352306	42	115.165	-4.37048e-07
2	1	0	1	1	379.634	-0.40154	-0.401629	0.0011042	2	-0.00351858	42	118.964	-4.43479e-07
2	1	0	1	1	383.433	-0.382546	-0.382628	0.0011776	2	-0.00351384	42	122.762	-4.50583e-07
2	1	0	1	1	387.232	-0.363552	-0.36363	0.00123126	2	-0.00350887	42	126.561	-4.47721e-07
2	1	0	1	1	391.031	-0.344558	-0.344644	0.00129944	2	-0.00350366	42	130.36	-4.47843e-07
2	1	0	1	1	394.83	-0.325564	-0.325642	0.00136728	2	-0.00349822	42	134.159	-4.45244e-07
2	1	0	0	1	398.629	-0.306569	-0.306643	0.00144759	2	-0.00349248	42	137.958	-4.43895e-07
2	1	0	1	1	402.248	-0.311568	-0.311647	0.000877765	2	-0.00348822	42	141.577	-2.73553e-07
2	1	0	1	1	406.047	-0.330562	-0.330637	0.000492892	2	-0.00348606	42	145.376	-1.62968e-07
2	1	0	1	1	409.846	-0.349556	-0.34964	0.000225567	2	-0.00348508	42	149.175	-7.88674e-08
2	0	0	1	1	413.644	-0.36855	-0.368622	3.98085e-06	2	-0.00348503	42	1.3995	-1.46743e-09
2	0	0	1	1	417.443	-0.387545	-0.38761	-0.000184441	2	-0.00348577	42	5.1984	7.14912e-08
2	0	0	1	1	420.822	-0.404489	-0.404547	-0.000572604	2	-0.003487	42	8.5767	2.31645e-07

File: Fig 6_prec-Fe3O4.mpt
mode	ox/red	error	control changes	counter inc.	time/s	control/V	Ewe/V	<I>/mA	cycle number	(Q-Qo)/C	I Range	step time/s	P/W
2	1	1	1	0	0.000000000000000E+000	-0.300317	-0.300301	0.0781771	1	0.0000000E+000	41	0.000000000000000E+000	-2.34767e-05
2	1	0	0	0	3.589	-0.318261	-0.318264	0.00326759	1	2.90248e-05	42	3.449	-1.03996e-06
2	1	0	1	0	7.188	-0.336256	-0.336261	0.00211011	1	3.81793e-05	42	7.048	-7.09549e-07
2	1	0	1	0	10.7869	-0.354251	-0.35426	0.00161782	1	4.46478e-05	42	10.6469	-5.7313e-07
2	1	0	0	0	14.3858	-0.372246	-0.372236	0.00131271	1	4.97341e-05	42	14.2458	-4.88639e-07
2	1	0	1	0	17.9848	-0.39024	-0.39022	0.00109042	1	5.3912e-05	42	17.8448	-4.25504e-07
2	1	0	0	0	21.5838	-0.408235	-0.408214	0.000914499	1	5.73994e-05	42	21.4438	-3.73311e-07
2	1	0	1	0	25.1827	-0.42623	-0.426221	0.000768944	1	6.0301e-05	42	25.0427	-3.2774e-07
2	1	0	1	0	28.7816	-0.444225	-0.444186	0.000635048	1	6.26829e-05	42	28.6416	-2.82079e-07
2	1	0	0	0	32.3806	-0.462219	-0.4622	0.000518251	1	6.46207e-05	42	32.2406	-2.39536e-07
2	1	0	1	0	35.9795	-0.480214	-0.480217	0.000425077	1	6.61611e-05	42	35.8395	-2.04129e-07
2	1	0	1	0	39.5784	-0.498209	-0.498195	0.00032499	1	6.73403e-05	42	39.4384	-1.61908e-07
2	1	0	0	0	43.1774	-0.516204	-0.516193	0.000219831	1	6.81673e-05	42	43.0374	-1.13475e-07
2	1	0	1	0	46.7764	-0.534198	-0.534196	0.000132919	1	6.86402e-05	42	46.6364	-7.10046e-08
2	1	0	1	0	50.3753	-0.552193	-0.5522	1.6629e-05	1	6.87537e-05	42	0.3999	-9.18255e-09
2	0	0	0	0	53.9742	-0.570188	-0.570152	-7.66599e-05	1	6.84671e-05	42	3.9988	4.37078e-08
2	0	0	1	0	57.5732	-0.588182	-0.58818	-0.000212867	1	6.7737e-05	42	7.5978	1.25204e-07
2	0	0	0	0	61.1722	-0.606177	-0.60616	-0.000354128	1	6.65084e-05	42	11.1968	2.14658e-07
2	0	0	1	0	64.7711	-0.624172	-0.624159	-0.000519852	1	6.47122e-05	42	14.7957	3.2447e-07
2	0	0	1	0	68.37	-0.642167	-0.642135	-0.000654453	1	6.23629e-05	42	18.3946	4.20247e-07
2	0	0	0	0	71.969	-0.660161	-0.66013	-0.000817884	1	5.94501e-05	42	21.9936	5.3991e-07
2	0	0	1	0	75.5679	-0.678156	-0.678123	-0.00102321	1	5.58626e-05	42	25.5925	6.93866e-07
2	0	0	1	0	79.1668	-0.696151	-0.69611	-0.00129246	1	5.14073e-05	42	29.1914	8.99694e-07
2	0	0	0	0	82.7658	-0.714146	-0.714095	-0.00161636	1	4.58451e-05	42	32.7904	1.15423e-06
2	0	0	1	0	86.3648	-0.73214	-0.732129	-0.00279364	1	3.80791e-05	42	36.3894	2.0453e-06
2	0	0	1	0	89.9637	-0.750135	-0.750092	-0.0038728	1	2.52328e-05	42	39.9883	2.90496e-06
2	0	0	0	0	93.5626	-0.76813	-0.76809	-0.00441544	1	9.90424e-06	42	43.5872	3.39145e-06
2	0	0	1	0	97.1616	-0.786125	-0.786107	-0.00542195	1	-8.21535e-06	42	47.1862	4.26223e-06
2	0	0	0	0	100.761	-0.804119	-0.804066	-0.00620438	1	-2.96256e-05	42	50.7852	4.98873e-06
2	0	0	1	0	104.359	-0.822114	-0.822094	-0.00708744	1	-5.39808e-05	42	54.3841	5.82654e-06
2	0	0	1	0	107.958	-0.840109	-0.840096	-0.00820127	1	-8.20481e-05	42	57.983	6.88985e-06
2	0	0	0	0	111.557	-0.858103	-0.858094	-0.0093848	1	-0.000114345	42	61.582	8.05304e-06
2	0	0	1	0	115.176	-0.876198	-0.876142	-0.010452	1	-0.0001509	41	65.201	9.15743e-06
2	0	0	1	0	118.775	-0.894193	-0.894156	-0.011397	1	-0.000191214	41	68.7998	1.01907e-05
2	0	0	0	0	122.374	-0.912188	-0.912152	-0.0121753	1	-0.000234431	41	72.3988	1.11057e-05
2	0	0	1	0	125.973	-0.930182	-0.930136	-0.0130566	1	-0.000280649	41	75.9978	1.21444e-05
2	0	0	1	0	129.572	-0.948177	-0.948133	-0.0141273	1	-0.000330349	41	79.5967	1.33946e-05
2	0	0	0	0	133.171	-0.966172	-0.966128	-0.0156797	1	-0.000384718	41	83.1956	1.51486e-05
2	0	0	1	0	136.77	-0.984167	-0.9841	-0.017898	1	-0.00044582	41	86.7946	1.76134e-05
2	0	0	0	0	140.369	-1.00216	-1.00209	-0.0206609	1	-0.000516032	41	90.3936	2.07041e-05
2	0	0	1	0	143.968	-1.02016	-1.02008	-0.0236542	1	-0.000596764	41	93.9925	2.41292e-05
2	0	0	1	0	147.567	-1.03815	-1.0381	-0.0260623	1	-0.000687417	41	97.5914	2.70553e-05
2	0	0	0	0	151.166	-1.05615	-1.05607	-0.0267614	1	-0.000783921	41	101.19	2.82619e-05
2	0	0	1	0	154.765	-1.07414	-1.07407	-0.0246247	1	-0.000877935	41	104.789	2.64486e-05
2	0	0	1	0	158.364	-1.09214	-1.09206	-0.0198677	1	-0.000958998	41	108.388	2.16968e-05
2	0	0	0	0	161.963	-1.11013	-1.11005	-0.0150498	1	-0.00102157	41	111.987	1.67061e-05
2	0	0	1	0	165.562	-1.12812	-1.12806	-0.0125587	1	-0.00107086	41	115.586	1.4167e-05
2	0	0	0	0	169.161	-1.14612	-1.14607	-0.0119222	1	-0.0011148	41	119.185	1.36637e-05
2	0	0	1	0	172.759	-1.16411	-1.16406	-0.0124256	1	-0.0011585	41	122.784	1.44641e-05
2	0	0	1	0	176.358	-1.18211	-1.18204	-0.0157434	1	-0.00120839	41	126.383	1.86094e-05
2	0	0	0	0	179.957	-1.2001	-1.20004	-0.0256336	1	-0.00128016	41	129.982	3.07612e-05
2	0	0	1	0	183.556	-1.2181	-1.21805	-0.0412489	1	-0.0014009	41	133.581	5.02433e-05
2	0	0	1	0	187.155	-1.23609	-1.23604	-0.0490799	1	-0.00156751	41	137.18	6.06645e-05
2	0	0	0	0	190.754	-1.25409	-1.25401	-0.0499626	1	-0.00174647	41	140.779	6.26538e-05
2	0	0	1	0	194.353	-1.27208	-1.272	-0.0538674	1	-0.00193184	41	144.378	6.85196e-05
2	0	0	1	0	197.952	-1.29008	-1.28998	-0.066766	1	-0.00214583	41	147.977	8.61267e-05
2	0	0	0	0	201.551	-1.30807	-1.30798	-0.095862	1	-0.00243266	41	151.576	0.000125386
2	0	0	1	0	205.17	-1.32617	-1.32609	-0.151138	1	-0.00287115	40	155.195	0.000200423
2	0	0	1	0	208.769	-1.34416	-1.34408	-0.243597	1	-0.00356939	40	158.793	0.000327414
2	0	0	1	1	212.048	-1.33946	-1.33939	-0.235987	2	-0.00442208	40	162.073	0.000316077
2	0	0	0	1	215.647	-1.32147	-1.3214	-0.171918	2	-0.0051464	40	165.672	0.000227173
2	0	0	1	1	219.246	-1.30347	-1.30339	-0.12546	2	-0.00567453	40	169.271	0.000163523
2	0	0	1	1	222.845	-1.28548	-1.2854	-0.0953276	2	-0.00606774	40	172.87	0.000122534
2	0	0	0	1	226.444	-1.26748	-1.26742	-0.0746906	2	-0.00637057	40	176.469	9.46646e-05
2	0	0	1	1	230.043	-1.24949	-1.24944	-0.060455	2	-0.00661201	40	180.068	7.55346e-05
2	0	0	1	1	233.642	-1.23149	-1.23143	-0.0498241	2	-0.00680924	40	183.667	6.13549e-05
2	0	0	0	1	237.261	-1.2134	-1.21332	-0.0415796	2	-0.00697392	41	187.286	5.04493e-05
2	0	0	1	1	240.86	-1.1954	-1.19535	-0.0347132	2	-0.00711052	41	190.885	4.14946e-05
2	0	0	1	1	244.459	-1.17741	-1.17736	-0.0286546	2	-0.007224	41	194.483	3.37369e-05
2	0	0	0	1	248.058	-1.15942	-1.15935	-0.0232059	2	-0.00731679	41	198.082	2.69038e-05
2	0	0	1	1	251.657	-1.14142	-1.14138	-0.0185437	2	-0.00739132	41	201.681	2.11654e-05
2	0	0	0	1	255.256	-1.12343	-1.12336	-0.0147293	2	-0.00745069	41	205.28	1.65463e-05
2	0	0	1	1	258.855	-1.10543	-1.10537	-0.0111792	2	-0.00749699	41	208.879	1.23572e-05
2	0	0	1	1	262.454	-1.08744	-1.08735	-0.00745108	2	-0.00753019	41	212.478	8.10195e-06
2	0	0	0	1	266.073	-1.06934	-1.06928	-0.00430193	2	-0.00755067	42	216.097	4.59998e-06
2	0	0	1	1	269.672	-1.05135	-1.05128	-0.00255503	2	-0.00756227	42	219.696	2.68606e-06
2	0	0	1	1	273.27	-1.03335	-1.03328	-0.00151264	2	-0.00756913	42	223.295	1.56299e-06
2	0	0	0	1	276.869	-1.01536	-1.01528	-0.000844606	2	-0.00757295	42	226.894	8.57509e-07
2	0	0	1	1	280.468	-0.997363	-0.997319	-0.00012554	2	-0.00757437	42	230.493	1.25203e-07
2	1	0	1	1	284.067	-0.979368	-0.9793	0.00101271	2	-0.00757263	42	3.399	-9.91747e-07
2	1	0	0	1	287.666	-0.961373	-0.961322	0.00387291	2	-0.00756426	42	6.9979	-3.72311e-06
2	1	0	1	1	291.265	-0.943379	-0.943343	0.0097206	2	-0.00754017	42	10.5969	-9.16985e-06
2	1	0	0	1	294.884	-0.925284	-0.925217	0.0166667	2	-0.00749188	41	14.2159	-1.54203e-05
2	1	0	1	1	298.483	-0.907289	-0.907227	0.0233421	2	-0.0074195	41	17.8148	-2.11766e-05
2	1	0	1	1	302.082	-0.889294	-0.889235	0.030666	2	-0.00732182	41	21.4137	-2.72693e-05
2	1	0	0	1	305.681	-0.8713	-0.871247	0.0358645	2	-0.00719992	41	25.0127	-3.12468e-05
2	1	0	1	1	309.28	-0.853305	-0.853279	0.0349537	2	-0.00707023	41	28.6117	-2.98252e-05
2	1	0	1	1	312.879	-0.83531	-0.835278	0.0302023	2	-0.00695193	41	32.2106	-2.52273e-05
2	1	0	0	1	316.478	-0.817315	-0.817271	0.0247742	2	-0.00685275	41	35.8095	-2.02472e-05
2	1	0	1	1	320.077	-0.799321	-0.79927	0.020101	2	-0.00677195	41	39.4085	-1.60661e-05
2	1	0	0	1	323.676	-0.781326	-0.781275	0.0164801	2	-0.00670617	41	43.0075	-1.28755e-05
2	1	0	1	1	327.275	-0.763331	-0.763287	0.0141455	2	-0.00665121	41	46.6064	-1.07971e-05
2	1	0	1	1	330.874	-0.745336	-0.745294	0.0130143	2	-0.00660245	41	50.2053	-9.69945e-06
2	1	0	0	1	334.473	-0.727342	-0.727301	0.0134531	2	-0.00655499	41	53.8043	-9.78443e-06
2	1	0	1	1	338.071	-0.709347	-0.709301	0.0159901	2	-0.00650228	41	57.4032	-1.13418e-05
2	1	0	1	1	341.67	-0.691352	-0.691319	0.0116524	2	-0.00644666	41	61.0021	-8.05554e-06
2	1	0	0	1	345.269	-0.673358	-0.673301	0.00710984	2	-0.00641427	41	64.6011	-4.78707e-06
2	1	0	1	1	348.868	-0.655363	-0.655327	0.00597509	2	-0.00639072	41	68.2001	-3.91564e-06
2	1	0	1	1	352.467	-0.637368	-0.637338	0.00536125	2	-0.00637021	41	71.799	-3.41693e-06
2	1	0	0	1	356.066	-0.619373	-0.61934	0.00497187	2	-0.00635145	41	75.3979	-3.07927e-06
2	1	0	1	1	359.665	-0.601379	-0.60134	0.00464898	2	-0.00633396	41	78.9969	-2.79562e-06
2	1	0	1	1	363.304	-0.583184	-0.583157	0.00444793	2	-0.00631728	42	82.6358	-2.59384e-06
2	1	0	0	1	366.903	-0.565189	-0.565153	0.00422146	2	-0.00630155	42	86.2347	-2.38577e-06
2	1	0	1	1	370.502	-0.547194	-0.547178	0.00395495	2	-0.00628669	42	89.8337	-2.16406e-06
2	1	0	0	1	374.101	-0.5292	-0.529196	0.00379838	2	-0.00627263	42	93.4327	-2.01009e-06
2	1	0	1	1	377.7	-0.511205	-0.511172	0.0036333	2	-0.00625918	42	97.0316	-1.85724e-06
2	1	0	1	1	381.299	-0.49321	-0.493163	0.00346938	2	-0.00624628	42	100.63	-1.71097e-06
2	1	0	0	1	384.898	-0.475216	-0.475164	0.0033363	2	-0.00623391	42	104.229	-1.58529e-06
2	1	0	1	1	388.497	-0.457221	-0.457198	0.00323286	2	-0.00622195	42	107.828	-1.47806e-06
2	1	0	1	1	392.096	-0.439226	-0.439181	0.00314079	2	-0.00621037	42	111.427	-1.37937e-06
2	1	0	0	1	395.695	-0.421231	-0.42118	0.00305071	2	-0.00619911	42	115.026	-1.2849e-06
2	1	0	1	1	398.975	-0.404786	-0.404738	0.00309237	2	-0.00618909	42	118.306	-1.2516e-06