Folder: Magnetite2026/Fig 2 (part 3)

File: Fig 2_np-Fe3O4_5mvs.mpt
mode	ox/red	error	control changes	counter inc.	time/s	control/V	Ewe/V	<I>/mA	cycle number	(Q-Qo)/C	I Range	step time/s	P/W
2	1	0	0	0	0.000000000000000E+000	-0.299982	-0.299752	0.157877	1	0.0000000E+000	39	0.000000000000000E+000	-4.73239e-05
2	1	0	1	0	10.511	-0.352537	-0.352302	0.00178384	1	4.38648e-05	39	10.4009	-6.2845e-07
2	1	0	0	0	21.112	-0.405541	-0.405292	0.00109985	1	5.72954e-05	39	21.0019	-4.4576e-07
2	1	0	0	0	31.7128	-0.458546	-0.458346	0.000611318	1	6.50468e-05	39	31.6027	-2.80195e-07
2	1	0	1	0	42.3138	-0.511551	-0.511326	0.000446715	1	6.90379e-05	39	42.2037	-2.28417e-07
2	0	0	0	0	52.9148	-0.564555	-0.564344	0.000104466	1	7.0317e-05	39	1.4002	-5.89547e-08
2	0	0	0	0	63.5156	-0.61756	-0.617348	-0.000236859	1	6.81277e-05	39	12.001	1.46225e-07
2	0	0	1	0	74.1166	-0.670565	-0.67034	-0.000593684	1	6.25991e-05	39	22.602	3.9797e-07
2	0	0	0	0	84.7176	-0.723569	-0.723359	-0.00104971	1	5.23474e-05	39	33.203	7.59317e-07
2	0	0	0	0	95.3184	-0.776574	-0.776375	-0.00203475	1	3.40272e-05	39	43.8038	1.57973e-06
2	0	0	1	0	105.919	-0.829579	-0.829355	-0.00370184	1	1.24817e-06	39	54.4048	3.07014e-06
2	0	0	0	0	116.52	-0.882583	-0.882348	-0.00751341	1	-5.83354e-05	39	65.0058	6.62944e-06
2	0	0	0	0	127.121	-0.935588	-0.935367	-0.00943617	1	-0.00015929	39	75.6066	8.82628e-06
2	0	0	1	0	137.722	-0.988593	-0.98838	-0.010005	1	-0.000260857	39	86.2076	9.88871e-06
2	0	0	0	0	148.323	-1.0416	-1.04139	-0.0146596	1	-0.000390654	39	96.8086	1.52664e-05
2	0	0	0	0	158.924	-1.0946	-1.09436	-0.015245	1	-0.000568632	39	107.409	1.66836e-05
2	0	0	1	0	169.525	-1.14761	-1.14734	-0.0377087	1	-0.00076263	39	118.01	4.32645e-05
2	0	0	0	0	180.126	-1.20061	-1.20038	-0.0361882	1	-0.00113401	39	128.611	4.34397e-05
2	0	0	0	0	190.727	-1.25362	-1.25339	-0.0779274	1	-0.00166647	39	139.212	9.76732e-05
2	0	0	1	0	201.328	-1.30662	-1.30638	-0.358669	1	-0.00353751	39	149.813	0.000468558
2	0	0	0	1	211.709	-1.34142	-1.34122	-3.06641	2	-0.0220427	39	160.195	0.00411271
2	0	0	1	1	222.31	-1.28842	-1.28819	-0.894115	2	-0.041239	39	170.796	0.00115179
2	0	0	1	1	232.911	-1.23541	-1.23516	-0.341428	2	-0.0469999	39	181.396	0.000421718
2	0	0	0	1	243.512	-1.18241	-1.18215	-0.189597	2	-0.0497405	39	191.997	0.000224132
2	0	0	1	1	254.113	-1.1294	-1.12916	-0.0695974	2	-0.0510475	39	202.598	7.85865e-05
2	0	0	1	1	264.714	-1.0764	-1.07618	-0.0260246	2	-0.051508	39	213.199	2.80071e-05
2	1	0	0	1	275.315	-1.0234	-1.02315	0.00675898	2	-0.0515969	39	2.8002	-6.91544e-06
2	1	0	1	1	285.916	-0.970391	-0.970179	0.033103	2	-0.0513991	39	13.4012	-3.21158e-05
2	1	0	1	1	296.517	-0.917386	-0.917157	0.063721	2	-0.0509024	39	24.002	-5.84422e-05
2	1	0	0	1	307.118	-0.864382	-0.864139	0.0481881	2	-0.0502133	39	34.603	-4.16412e-05
2	1	0	1	1	317.719	-0.811377	-0.811119	0.0228208	2	-0.0498525	39	45.204	-1.85104e-05
2	1	0	1	1	328.319	-0.758372	-0.758136	0.0125381	2	-0.0496706	39	55.8048	-9.50559e-06
2	1	0	0	1	338.92	-0.705368	-0.705151	0.00859401	2	-0.0495596	39	66.4058	-6.06008e-06
2	1	0	1	1	349.521	-0.652363	-0.652145	0.00703036	2	-0.0494755	39	77.0068	-4.58481e-06
2	1	0	1	1	360.122	-0.599358	-0.599108	0.00616424	2	-0.049404	39	87.6076	-3.69304e-06
2	1	0	0	1	370.723	-0.546354	-0.54609	0.00564973	2	-0.0493399	39	98.2086	-3.08526e-06
2	1	0	1	1	381.324	-0.493349	-0.493131	0.00533875	2	-0.0492804	39	108.81	-2.6327e-06
2	1	0	1	1	391.925	-0.440344	-0.440101	0.0052615	2	-0.0492231	39	119.41	-2.31559e-06
2	1	0	0	1	402.526	-0.38734	-0.38713	0.00517412	2	-0.0491664	39	130.011	-2.00306e-06
2	1	0	1	1	413.127	-0.334335	-0.334085	0.00525838	2	-0.0491095	39	140.612	-1.75675e-06
2	1	0	0	1	423.508	-0.317534	-0.317305	0.00440249	2	-0.0490552	39	150.994	-1.39693e-06
2	1	0	1	1	434.109	-0.370538	-0.370321	0.00296976	2	-0.0490189	39	161.595	-1.09977e-06
2	1	0	1	1	444.71	-0.423543	-0.423323	0.0023806	2	-0.0489922	39	172.196	-1.00776e-06
2	1	0	0	1	455.311	-0.476547	-0.476315	0.00202641	2	-0.0489703	39	182.797	-9.65211e-07
2	1	0	1	1	465.912	-0.529552	-0.52932	0.00174782	2	-0.048952	39	193.398	-9.25159e-07
2	1	0	1	1	476.513	-0.582557	-0.582303	0.00156448	2	-0.0489358	39	203.998	-9.11003e-07
2	1	0	0	1	487.114	-0.635561	-0.635323	0.00136803	2	-0.0489221	39	214.599	-8.69139e-07
2	1	0	1	1	497.715	-0.688566	-0.688327	0.00132104	2	-0.0489099	39	225.2	-9.09305e-07
2	0	0	1	1	508.316	-0.741571	-0.741314	0.00118856	2	-0.0488989	39	235.801	-8.81097e-07
2	1	0	0	1	518.917	-0.794576	-0.794356	0.00133063	2	-0.0488878	39	246.402	-1.057e-06
2	1	0	1	1	529.518	-0.84758	-0.847343	0.00125741	2	-0.0488768	39	257.003	-1.06546e-06
2	1	0	1	1	540.119	-0.900585	-0.900375	0.0014808	2	-0.0488652	39	267.604	-1.33327e-06
2	0	0	0	1	550.72	-0.95359	-0.953335	0.000515325	2	-0.0488548	39	278.205	-4.91277e-07
2	0	0	1	1	561.321	-1.00659	-1.00637	-0.00320303	2	-0.0488693	39	9.401	3.22342e-06
2	0	0	1	1	571.921	-1.0596	-1.05937	-0.0136272	2	-0.0489366	39	20.0018	1.44363e-05
2	0	0	0	1	582.522	-1.1126	-1.11238	-0.019134	2	-0.0491469	39	30.6028	2.12842e-05
2	0	0	1	1	593.123	-1.16561	-1.16537	-0.0192313	2	-0.0493422	39	41.2038	2.24116e-05
2	0	0	1	1	603.724	-1.21861	-1.21838	-0.0328973	2	-0.0495969	39	51.8046	4.00814e-05
2	0	0	0	1	614.325	-1.27162	-1.27141	-0.102476	2	-0.0502459	39	62.4056	0.000130288
2	0	0	1	1	624.926	-1.32462	-1.32437	-0.333458	2	-0.0523167	39	73.0066	0.000441621
2	0	0	0	0	635.308	-1.32342	-1.32319	-0.56357	3	-0.0588383	39	83.388	0.000745709
2	0	0	0	0	645.908	-1.27042	-1.27016	-0.208227	3	-0.0624698	39	93.9888	0.000264482
2	0	0	1	0	656.509	-1.21741	-1.21716	-0.1163	3	-0.0641109	39	104.59	0.000141556
2	0	0	0	0	667.11	-1.16441	-1.16416	-0.0572128	3	-0.0650251	39	115.191	6.66049e-05
2	0	0	0	0	677.711	-1.1114	-1.11113	-0.0198394	3	-0.0653949	39	125.792	2.20441e-05
2	0	0	1	0	688.312	-1.0584	-1.05815	-0.00612723	3	-0.0655281	39	136.393	6.48352e-06
2	1	0	1	0	698.913	-1.00539	-1.00512	0.00537197	3	-0.0655262	39	5.6006	-5.39947e-06
2	1	0	0	0	709.514	-0.952389	-0.952132	0.0250541	3	-0.0653581	39	16.2014	-2.38548e-05
2	1	0	1	0	720.115	-0.899385	-0.899146	0.0329249	3	-0.0650574	39	26.8024	-2.96043e-05
2	1	0	1	0	730.716	-0.84638	-0.846105	0.0217178	3	-0.0647408	39	37.4034	-1.83756e-05
2	1	0	0	0	741.317	-0.793375	-0.793107	0.00833028	3	-0.0645907	39	48.0042	-6.6068e-06
2	1	0	1	0	751.918	-0.740371	-0.740114	0.00425589	3	-0.0645266	39	58.6052	-3.14984e-06
2	1	0	0	0	762.519	-0.687366	-0.687119	0.00277595	3	-0.0644888	39	69.2062	-1.90741e-06
2	1	0	0	0	773.12	-0.634361	-0.634116	0.00223201	3	-0.0644608	39	79.807	-1.41535e-06
2	1	0	1	0	783.721	-0.581357	-0.581127	0.00188489	3	-0.064438	39	90.408	-1.09536e-06
2	1	0	1	0	794.321	-0.528353	-0.528109	0.00173671	3	-0.0644175	39	101.009	-9.1717e-07
2	1	0	0	0	804.922	-0.475347	-0.475121	0.00158101	3	-0.0643988	39	111.61	-7.51172e-07
2	0	0	1	0	815.523	-0.422343	-0.422103	0.00168764	3	-0.0643803	39	122.211	-7.12357e-07
2	0	0	1	0	826.124	-0.369338	-0.369104	0.0017638	3	-0.064361	39	132.812	-6.51025e-07
2	1	0	0	0	836.725	-0.316333	-0.316103	0.00195524	3	-0.0643401	39	143.413	-6.18057e-07
2	1	0	1	0	847.107	-0.335535	-0.335295	0.00125567	3	-0.0643234	39	153.794	-4.21018e-07
2	0	0	0	0	857.708	-0.38854	-0.388316	0.000747811	3	-0.0643147	39	164.395	-2.90387e-07
2	1	0	1	0	868.309	-0.441544	-0.441324	0.000616197	3	-0.0643088	39	174.996	-2.71943e-07
2	0	0	1	0	878.909	-0.494549	-0.494313	0.000504562	3	-0.0643044	39	185.597	-2.49411e-07
2	1	0	0	0	889.51	-0.547554	-0.547339	0.000336896	3	-0.0643016	39	196.198	-1.84397e-07
2	1	0	1	0	900.111	-0.600558	-0.600307	0.000362927	3	-0.0642994	39	206.799	-2.17868e-07
2	1	0	1	0	910.712	-0.653563	-0.653333	0.000322869	3	-0.0642977	39	217.4	-2.10941e-07
2	1	0	0	0	921.313	-0.706568	-0.706338	0.000272078	3	-0.0642968	39	228.001	-1.92179e-07
2	1	0	1	0	931.914	-0.759572	-0.759317	0.000138836	3	-0.0642967	39	0.000000000000000E+000	-1.05421e-07
2	0	0	1	0	942.515	-0.812577	-0.812366	0.000330416	3	-0.0642956	39	9.0008	-2.68419e-07
2	1	0	0	0	953.116	-0.865582	-0.865358	0.000270382	3	-0.0642947	39	19.6017	-2.33977e-07
2	1	0	1	0	963.717	-0.918586	-0.918367	0.000479992	3	-0.0642934	39	30.2027	-4.40809e-07
2	1	0	1	0	974.318	-0.971591	-0.971366	-0.000123035	3	-0.0642927	39	3.2003	1.19512e-07
2	0	0	0	0	984.919	-1.0246	-1.02437	-0.00226831	3	-0.0643085	39	13.8012	2.32359e-06
2	0	0	1	0	995.52	-1.0776	-1.07737	-0.0077133	3	-0.0643614	39	24.4022	8.31011e-06
2	0	0	1	0	1006.12	-1.1306	-1.13037	-0.00883757	3	-0.0644581	39	35.003	9.98973e-06
2	0	0	0	0	1016.72	-1.18361	-1.18336	-0.0131039	3	-0.0645778	39	45.604	1.55067e-05
2	0	0	1	0	1027.32	-1.23661	-1.23635	-0.0273917	3	-0.064772	39	56.205	3.38656e-05
2	0	0	1	0	1037.92	-1.28962	-1.28935	-0.0853651	3	-0.0653145	39	66.8058	0.000110065
2	0	0	0	0	1048.52	-1.34262	-1.34239	-0.265425	3	-0.0669908	39	77.4068	0.000356303
2	0	0	1	1	1058.91	-1.30542	-1.30517	-0.161409	4	-0.0694758	39	87.7882	0.000210666
2	0	0	0	1	1069.51	-1.25242	-1.25217	-0.0889459	4	-0.0707354	39	98.3892	0.000111376
2	0	0	1	1	1080.11	-1.19941	-1.19915	-0.05172	4	-0.0714689	39	108.99	6.20201e-05
2	0	0	1	1	1090.71	-1.14641	-1.14617	-0.0211171	4	-0.071843	39	119.591	2.42038e-05
2	0	0	0	1	1101.31	-1.0934	-1.09319	-0.00816019	4	-0.0719821	39	130.192	8.9206e-06
2	0	0	0	1	1111.91	-1.0404	-1.04017	-0.00104013	4	-0.0720274	39	140.793	1.08191e-06
2	1	0	1	1	1122.51	-0.987392	-0.987159	0.0077308	4	-0.0720006	39	8.8008	-7.63153e-06
2	1	0	0	1	1133.11	-0.934388	-0.934172	0.0176419	4	-0.0718517	39	19.4018	-1.64805e-05
2	1	0	1	1	1143.71	-0.881383	-0.881165	0.0189812	4	-0.0716563	39	30.0026	-1.67256e-05
2	1	0	1	1	1154.31	-0.828378	-0.828162	0.0103931	4	-0.0714857	39	40.6036	-8.6072e-06
2	1	0	0	1	1164.92	-0.775374	-0.775136	0.00387312	4	-0.0714155	39	51.2046	-3.0022e-06
2	1	0	1	1	1175.52	-0.722369	-0.722135	0.00199701	4	-0.0713845	39	61.8055	-1.44211e-06
2	1	0	1	1	1186.12	-0.669364	-0.669099	0.00120257	4	-0.0713661	39	72.4064	-8.04638e-07
2	1	0	0	1	1196.72	-0.61636	-0.616108	0.000938479	4	-0.071353	39	83.0074	-5.78204e-07
2	0	0	1	1	1207.32	-0.563355	-0.563132	0.000860338	4	-0.0713426	39	93.6083	-4.84484e-07
2	0	0	1	1	1217.92	-0.51035	-0.510141	0.000814641	4	-0.0713327	39	104.209	-4.15582e-07
2	1	0	0	1	1228.52	-0.457346	-0.457115	0.000748	4	-0.0713232	39	114.81	-3.41922e-07
2	1	0	0	1	1236.34	-0.418192	-0.417906	0.00119996	4	-0.0713161	39	122.629	-5.01469e-07

File: Fig 2_np-Fe3O4_25mvs.mpt
mode	ox/red	error	control changes	counter inc.	time/s	control/V	Ewe/V	<I>/mA	cycle number	(Q-Qo)/C	I Range	step time/s	P/W
2	1	1	0	0	0.000000000000000E+000	-0.30003	-0.299857	0.62221	1	0.0000000E+000	39	0.000000000000000E+000	-0.000186574
2	1	0	0	0	2.4624	-0.361587	-0.361394	0.00427962	1	2.63056e-05	39	2.4403	-1.54663e-06
2	1	0	1	0	4.9426	-0.423594	-0.42338	0.00223706	1	3.21362e-05	39	4.9205	-9.47126e-07
2	1	0	1	0	7.423	-0.485602	-0.485402	0.00121695	1	3.42855e-05	39	7.4009	-5.90711e-07
2	1	0	0	0	9.9032	-0.547609	-0.547402	0.000443318	1	3.40813e-05	39	1.36	-2.42673e-07
2	1	0	0	0	12.3836	-0.609616	-0.609391	-0.000536652	1	3.15981e-05	39	3.8404	3.27031e-07
2	0	0	1	0	14.8638	-0.671624	-0.67144	-0.00171776	1	2.63825e-05	39	6.3206	1.15337e-06
2	0	0	1	0	17.3442	-0.733631	-0.733445	-0.00370721	1	1.70517e-05	39	8.801	2.71904e-06
2	0	0	0	0	19.8244	-0.795638	-0.795441	-0.0073157	1	7.27576e-07	39	11.2812	5.81921e-06
2	0	0	0	0	22.3048	-0.857646	-0.857453	-0.0123381	1	-2.68424e-05	39	13.7616	1.05793e-05
2	0	0	1	0	24.785	-0.919653	-0.919439	-0.017118	1	-6.61403e-05	39	16.2418	1.5739e-05
2	0	0	1	0	27.2654	-0.98166	-0.981446	-0.0220072	1	-0.000118254	39	18.7222	2.15989e-05
2	0	0	0	0	29.7456	-1.04367	-1.04349	-0.0236619	1	-0.000178502	39	21.2024	2.46911e-05
2	0	0	1	0	32.2259	-1.10568	-1.10548	-0.0298784	1	-0.000245355	39	23.6827	3.303e-05
2	0	0	1	0	34.7062	-1.16768	-1.16747	-0.112215	1	-0.000367214	39	26.163	0.000131008
2	0	0	0	0	37.1864	-1.22969	-1.22948	-0.327388	1	-0.00111447	39	28.6432	0.000402517
2	0	0	0	0	39.6668	-1.2917	-1.29148	-1.08899	1	-0.00247139	39	31.1236	0.00140641
2	0	0	0	1	42.0996	-1.3474	-1.34721	-4.61535	2	-0.0098429	39	33.5564	0.00621783
2	0	0	1	1	44.5798	-1.2854	-1.28521	-1.44534	2	-0.0165843	39	36.0366	0.00185757
2	0	0	1	1	47.0602	-1.22339	-1.2232	-0.52736	2	-0.0187854	39	38.517	0.000645064
2	0	0	0	1	49.5404	-1.16138	-1.16118	-0.210063	2	-0.0196423	39	40.9972	0.000243921
2	0	0	0	1	52.0208	-1.09937	-1.09917	-0.0591219	2	-0.0199464	39	43.4776	6.49848e-05
2	1	0	1	1	54.501	-1.03737	-1.03715	0.0141908	2	-0.0199906	39	0.56	-1.4718e-05
2	1	0	1	1	56.9814	-0.97536	-0.975157	0.0461315	2	-0.0199034	39	3.0404	-4.49855e-05
2	1	0	0	1	59.4616	-0.913352	-0.913153	0.136302	2	-0.0196912	39	5.5206	-0.000124465
2	1	0	1	1	61.9419	-0.851347	-0.851153	0.161145	2	-0.0192799	39	8.0009	-0.000137159
2	1	0	1	1	64.4222	-0.789338	-0.789135	0.115422	2	-0.0189339	39	10.4812	-9.10834e-05
2	1	0	0	1	66.9024	-0.72733	-0.7271	0.0837698	2	-0.0186875	39	12.9614	-6.0909e-05
2	1	0	0	1	69.3828	-0.665323	-0.665121	0.0676667	2	-0.0184999	39	15.4418	-4.50066e-05
2	1	0	1	1	71.863	-0.603316	-0.603106	0.0615452	2	-0.0183378	39	17.922	-3.71183e-05
2	1	0	1	1	74.3434	-0.541308	-0.541108	0.0560235	2	-0.0181889	39	20.4024	-3.03148e-05
2	1	0	0	1	76.8236	-0.479301	-0.479109	0.0495924	2	-0.0180555	39	22.8826	-2.37602e-05
2	1	0	0	1	79.304	-0.417294	-0.417095	0.0443951	2	-0.017937	39	25.363	-1.8517e-05
2	1	0	1	1	81.7842	-0.355286	-0.355068	0.0409847	2	-0.017829	39	27.8432	-1.45524e-05
2	1	0	0	1	84.2172	-0.30558	-0.305392	0.0353986	2	-0.0177308	39	30.2762	-1.08104e-05
2	1	0	1	1	86.6974	-0.367588	-0.367388	0.0198734	2	-0.0176679	39	32.7564	-7.30127e-06
2	1	0	1	1	89.1778	-0.429595	-0.429398	0.0134171	2	-0.0176296	39	35.2368	-5.76128e-06
2	1	0	0	1	91.658	-0.491602	-0.491383	0.00978455	2	-0.0176035	39	37.717	-4.80796e-06
2	1	0	1	1	94.1382	-0.55361	-0.553402	0.00740981	2	-0.0175849	39	40.1972	-4.10061e-06
2	1	0	1	1	96.6186	-0.615617	-0.615416	0.00557807	2	-0.0175715	39	42.6776	-3.43283e-06
2	1	0	0	1	99.0988	-0.677624	-0.677412	0.00394911	2	-0.0175624	39	45.1578	-2.67517e-06
2	1	0	0	1	101.579	-0.739632	-0.73944	0.00144335	2	-0.0175583	39	47.6382	-1.06727e-06
2	0	0	1	1	104.059	-0.801639	-0.801438	-0.00472283	2	-0.0175642	39	2.2402	3.78506e-06
2	0	0	1	1	106.54	-0.863646	-0.863442	-0.015639	2	-0.0175936	39	4.7206	1.35033e-05
2	0	0	0	1	109.02	-0.925654	-0.925468	-0.0170096	2	-0.0176393	39	7.2008	1.57419e-05
2	0	0	0	1	111.5	-0.987661	-0.987482	-0.0243239	2	-0.0176915	39	9.6812	2.40194e-05
2	0	0	1	1	113.981	-1.04967	-1.04949	-0.0461332	2	-0.017778	39	12.1614	4.84163e-05
2	0	0	1	1	116.461	-1.11168	-1.11148	-0.113631	2	-0.0179622	39	14.6418	0.000126298
2	0	0	0	1	118.941	-1.17368	-1.17347	-0.276783	2	-0.0184329	39	17.122	0.000324795
2	0	0	0	1	121.422	-1.23569	-1.23548	-0.518593	2	-0.0193682	39	19.6024	0.000640714
2	0	0	1	1	123.902	-1.2977	-1.2975	-1.24663	2	-0.0213918	39	22.0826	0.00161751
2	0	0	1	0	126.335	-1.3414	-1.3412	-2.51193	3	-0.0264075	39	24.5154	0.00336901
2	0	0	0	0	128.815	-1.2794	-1.27919	-0.956652	3	-0.0304237	39	26.9956	0.00122374
2	0	0	0	0	131.295	-1.21739	-1.21718	-0.385418	3	-0.0319664	39	29.476	0.000469122
2	0	0	1	0	133.775	-1.15538	-1.15518	-0.151063	3	-0.0325922	39	31.9562	0.000174505
2	0	0	1	0	136.256	-1.09337	-1.09319	-0.0383185	3	-0.0328038	39	34.4366	4.18892e-05
2	1	0	0	0	138.736	-1.03137	-1.03119	0.0124336	3	-0.0328248	39	0.8	-1.28214e-05
2	1	0	0	0	141.216	-0.969359	-0.969157	0.0397604	3	-0.0327648	39	3.2804	-3.85341e-05
2	1	0	1	0	143.697	-0.907351	-0.90715	0.143394	3	-0.032548	39	5.7606	-0.00013008
2	1	0	1	0	146.177	-0.845344	-0.845153	0.159398	3	-0.0321086	39	8.241	-0.000134715
2	1	0	0	0	148.657	-0.783337	-0.783129	0.0902093	3	-0.0318085	39	10.7212	-7.06456e-05
2	1	0	0	0	151.138	-0.72133	-0.721144	0.0586447	3	-0.0316257	39	13.2016	-4.22913e-05
2	1	0	1	0	153.618	-0.659322	-0.65911	0.0435544	3	-0.0314989	39	15.6818	-2.87072e-05
2	1	0	1	0	156.098	-0.597317	-0.59711	0.0362474	3	-0.0313983	39	18.1621	-2.16437e-05
2	1	0	0	0	158.578	-0.535308	-0.535103	0.0315285	3	-0.0313118	39	20.6424	-1.6871e-05
2	1	0	1	0	161.059	-0.4733	-0.473088	0.0279306	3	-0.0312356	39	23.1226	-1.32137e-05
2	1	0	1	0	163.539	-0.411293	-0.41109	0.0258645	3	-0.0311668	39	25.603	-1.06326e-05
2	1	0	0	0	166.019	-0.349286	-0.349105	0.0242445	3	-0.0311025	39	28.0832	-8.46388e-06
2	1	0	1	0	168.452	-0.311581	-0.31137	0.0200923	3	-0.0310444	39	30.5162	-6.25613e-06
2	1	0	0	0	170.932	-0.373588	-0.373388	0.0127736	3	-0.0310074	39	32.9964	-4.76949e-06
2	1	0	0	0	173.413	-0.435596	-0.4354	0.0093655	3	-0.0309827	39	35.4768	-4.07774e-06
2	1	0	1	0	175.893	-0.497603	-0.497404	0.00745113	3	-0.0309643	39	37.957	-3.70622e-06
2	1	0	1	0	178.373	-0.55961	-0.559395	0.00616827	3	-0.0309498	39	40.4374	-3.4505e-06
2	1	0	0	0	180.854	-0.621618	-0.621425	0.00507947	3	-0.0309384	39	42.9176	-3.15651e-06
2	1	0	0	0	183.334	-0.683625	-0.683429	0.00381596	3	-0.0309299	39	45.398	-2.60794e-06
2	1	0	1	0	185.814	-0.745632	-0.74544	0.00171603	3	-0.0309254	39	47.8782	-1.2792e-06
2	0	0	0	0	188.294	-0.80764	-0.807436	-0.00397516	3	-0.0309299	39	2.0002	3.20969e-06
2	0	0	0	0	190.775	-0.869647	-0.869461	-0.013154	3	-0.0309551	39	4.4806	1.14369e-05
2	0	0	1	0	193.255	-0.931654	-0.931459	-0.0138691	3	-0.0309932	39	6.9608	1.29185e-05
2	0	0	1	0	195.735	-0.993662	-0.993463	-0.0189391	3	-0.031036	39	9.4412	1.88153e-05
2	0	0	0	0	198.216	-1.05567	-1.05549	-0.0312361	3	-0.0311003	39	11.9214	3.29693e-05
2	0	0	0	0	200.696	-1.11768	-1.11747	-0.0937613	3	-0.0312355	39	14.4018	0.000104776
2	0	0	1	0	203.176	-1.17968	-1.17948	-0.172873	3	-0.0315955	39	16.882	0.0002039
2	0	0	1	0	205.657	-1.24169	-1.24146	-0.306363	3	-0.0321536	39	19.3624	0.000380337
2	0	0	0	0	208.137	-1.3037	-1.3035	-0.787624	3	-0.0333993	39	21.8426	0.00102666
2	0	0	0	1	210.57	-1.3354	-1.33521	-1.41725	4	-0.0366107	39	24.2754	0.00189232
2	0	0	0	1	213.05	-1.27339	-1.27319	-0.519955	4	-0.0388085	39	26.7558	0.000662001
2	0	0	1	1	215.53	-1.21139	-1.21119	-0.219464	4	-0.0396565	39	29.236	0.000265813
2	0	0	1	1	218.01	-1.14938	-1.14919	-0.0880369	4	-0.0400186	39	31.7163	0.000101171
2	0	0	0	1	220.491	-1.08737	-1.08719	-0.0206146	4	-0.0401382	39	34.1966	2.24119e-05
2	1	0	1	1	222.971	-1.02537	-1.02516	0.00889972	4	-0.040143	39	1.12	-9.12363e-06
2	1	0	1	1	225.451	-0.963358	-0.963182	0.0358594	4	-0.0400967	39	3.6004	-3.45391e-05
2	1	0	0	1	227.932	-0.901351	-0.901171	0.131067	4	-0.0398973	39	6.0806	-0.000118114
2	1	0	0	1	230.412	-0.839343	-0.839157	0.119091	4	-0.0395152	39	8.561	-9.99358e-05
2	1	0	1	1	232.892	-0.777336	-0.777118	0.0583425	4	-0.0393064	39	11.0412	-4.5339e-05
2	1	0	1	1	235.373	-0.715329	-0.715116	0.0348535	4	-0.0391923	39	13.5216	-2.49243e-05
2	1	0	0	1	237.853	-0.653321	-0.653119	0.0251867	4	-0.0391172	39	16.0018	-1.64499e-05
2	1	0	0	1	240.333	-0.591314	-0.59111	0.0209058	4	-0.0390583	39	18.4822	-1.23576e-05
2	1	0	1	1	242.813	-0.529307	-0.529094	0.0178408	4	-0.0390082	39	20.9624	-9.43945e-06
2	1	0	1	1	245.294	-0.4673	-0.467106	0.0155385	4	-0.0389646	39	23.4428	-7.25815e-06
2	1	0	0	1	247.774	-0.405292	-0.405111	0.0144172	4	-0.0389254	39	25.923	-5.84054e-06
2	1	0	1	1	250.254	-0.343286	-0.343097	0.0138458	4	-0.0388884	39	28.4033	-4.75045e-06
2	1	0	0	1	252.687	-0.317582	-0.317377	0.0105733	4	-0.0388556	39	30.8362	-3.35572e-06
2	1	0	1	1	255.167	-0.379589	-0.379407	0.0062882	4	-0.0388379	39	33.3164	-2.38578e-06
2	1	0	1	1	257.648	-0.441597	-0.441418	0.00408816	4	-0.0388273	39	35.7968	-1.80459e-06
2	1	0	0	1	260.128	-0.503604	-0.503416	0.002891	4	-0.0388209	39	38.277	-1.45538e-06
2	1	0	0	1	262.608	-0.565611	-0.565421	0.00199744	4	-0.0388172	39	40.7574	-1.12939e-06
2	1	0	1	1	265.089	-0.627618	-0.627433	0.00117092	4	-0.0388157	39	43.2376	-7.34672e-07
2	1	0	1	1	267.569	-0.689626	-0.689441	8.06986e-05	4	-0.0388166	39	1.9603	-5.56369e-08
2	0	0	0	1	270.049	-0.751633	-0.751422	-0.00167267	4	-0.038821	39	4.4405	1.25688e-06
2	0	0	0	1	272.53	-0.81364	-0.813453	-0.00658503	4	-0.038833	39	6.9209	5.35662e-06
2	0	0	1	1	275.01	-0.875648	-0.875466	-0.0130994	4	-0.0388616	39	9.4011	1.14681e-05
2	0	0	1	1	277.49	-0.937655	-0.937482	-0.0117774	4	-0.038896	39	11.8815	1.10411e-05
2	0	0	0	1	279.97	-0.999662	-0.999472	-0.0159961	4	-0.0389322	39	14.3617	1.59877e-05
2	0	0	1	1	282.451	-1.06167	-1.06149	-0.0255829	4	-0.0389859	39	16.8419	2.7156e-05
2	0	0	1	1	284.931	-1.12368	-1.12351	-0.0794128	4	-0.0391007	39	19.3223	8.92213e-05
2	0	0	0	1	287.411	-1.18568	-1.18548	-0.105789	4	-0.0393482	39	21.8025	0.000125412
2	0	0	0	1	289.892	-1.24769	-1.24751	-0.192657	4	-0.0396968	39	24.2829	0.000240341
2	0	0	1	1	292.372	-1.3097	-1.3095	-0.523212	4	-0.0405022	39	26.7631	0.000685144
2	0	0	0	1	293.982	-1.34995	-1.34974	-1.10238	4	-0.0417538	39	28.3733	0.00148793