Folder: Magnetite2026/Fig 3 (part 3)

File: Fig 3_RRDE-np-Fe2O3_10mvs_ring (2).mpt
mode	ox/red	error	control changes	counter inc.	time/s	control/V	Ewe/V	<I>/mA	cycle number	(Q-Qo)/C	I Range	step time/s	P/W
2	0	0	0	0	0.000000000000000E+000	-0.299976	-0.299894	-0.0837733	1	0.0000000E+000	39	0.000000000000000E+000	2.51231e-05
2	1	0	1	0	1.9548	-0.319523	-0.319451	0.000790286	1	-3.00095e-07	39	1.6998	-2.52458e-07
2	1	0	1	0	3.9544	-0.339519	-0.339441	0.000895234	1	4.11575e-07	39	3.6994	-3.03879e-07
2	1	0	1	0	5.954	-0.359516	-0.359441	0.000976353	1	1.09136e-06	39	5.699	-3.50942e-07
2	1	0	0	0	7.9538	-0.379513	-0.379433	0.000854048	1	1.78306e-06	39	7.6988	-3.24054e-07
2	1	0	0	0	9.9534	-0.399509	-0.399401	0.000995708	1	2.41118e-06	39	9.6984	-3.97687e-07
2	1	0	0	0	11.953	-0.419506	-0.419446	0.001005	1	2.95192e-06	39	11.698	-4.21545e-07
2	1	0	1	0	13.9528	-0.439503	-0.439391	0.000987726	1	3.33897e-06	39	13.6978	-4.33998e-07
2	0	0	1	0	15.9524	-0.459499	-0.459416	0.000843023	1	3.68564e-06	39	15.6974	-3.87298e-07
2	0	0	1	0	17.952	-0.479496	-0.479406	0.000816864	1	3.8376e-06	39	0.000000000000000E+000	-3.91609e-07
2	0	0	0	0	19.9518	-0.499493	-0.499409	0.00065895	1	3.7531e-06	39	1.2998	-3.29086e-07
2	0	0	0	0	21.9514	-0.519489	-0.519424	0.000673218	1	3.42047e-06	39	3.2994	-3.49685e-07
2	0	0	0	0	23.951	-0.539486	-0.539408	0.000610384	1	2.95932e-06	39	5.299	-3.29246e-07
2	0	0	1	0	25.9508	-0.559482	-0.559418	0.000603093	1	2.2898e-06	39	7.2988	-3.37381e-07
2	0	0	1	0	27.9504	-0.579479	-0.579383	0.000391717	1	1.4183e-06	39	9.2984	-2.26954e-07
2	0	0	1	0	29.95	-0.599476	-0.599375	0.000364612	1	3.86624e-07	39	11.298	-2.18539e-07
2	0	0	1	0	31.9497	-0.619472	-0.619395	9.02228e-05	1	-8.55656e-07	39	13.2977	-5.58835e-08
2	0	0	0	0	33.9494	-0.639469	-0.63938	-3.84055e-05	1	-2.43622e-06	39	15.2974	2.45557e-08
2	0	0	0	0	35.949	-0.659465	-0.659398	-0.000325595	1	-4.48086e-06	39	17.297	2.14697e-07
2	1	0	0	0	37.9486	-0.679462	-0.679405	-0.000316559	1	-6.87851e-06	39	19.2966	2.15072e-07
2	0	0	1	0	39.9484	-0.699459	-0.699377	-0.000657693	1	-9.69103e-06	39	21.2964	4.59975e-07
2	0	0	1	0	41.948	-0.719455	-0.719398	-0.000849223	1	-1.30258e-05	39	23.296	6.10929e-07
2	1	0	1	0	43.9476	-0.739452	-0.739376	-0.00118513	1	-1.67537e-05	39	25.2956	8.7626e-07
2	1	0	0	0	45.9474	-0.759449	-0.759385	-0.00131236	1	-2.08527e-05	39	27.2954	9.96585e-07
2	1	0	0	0	47.947	-0.779445	-0.779379	-0.00158167	1	-2.53767e-05	39	29.295	1.23272e-06
2	1	0	0	0	49.9466	-0.799442	-0.79937	-0.00185787	1	-3.03318e-05	39	31.2946	1.48513e-06
2	1	0	1	0	51.9464	-0.819439	-0.819367	-0.00215537	1	-3.59054e-05	39	33.2944	1.76604e-06
2	0	0	1	0	53.946	-0.839435	-0.839366	-0.00248263	1	-4.2064e-05	39	35.294	2.08384e-06
2	0	0	1	0	55.9456	-0.859432	-0.859379	-0.0030931	1	-4.91227e-05	39	37.2936	2.65814e-06
2	0	0	0	0	57.9454	-0.879428	-0.879358	-0.00380833	1	-5.76709e-05	39	39.2934	3.34889e-06
2	0	0	0	0	59.945	-0.899425	-0.899346	-0.0055456	1	-6.85968e-05	39	41.293	4.98741e-06
2	0	0	0	0	61.9446	-0.919422	-0.919336	-0.00842685	1	-8.40339e-05	39	43.2926	7.74711e-06
2	0	0	1	0	63.9444	-0.939419	-0.939353	-0.0138606	1	-0.000107575	39	45.2924	1.302e-05
2	0	0	1	0	65.944	-0.959415	-0.959314	-0.0219268	1	-0.000144602	39	47.292	2.10347e-05
2	0	0	1	0	67.9436	-0.979412	-0.979316	-0.0300337	1	-0.000198682	39	49.2916	2.94125e-05
2	0	0	1	0	69.9433	-0.999409	-0.999305	-0.0349149	1	-0.000266336	39	51.2913	3.48906e-05
2	0	0	0	0	71.943	-1.0194	-1.0193	-0.0355488	1	-0.000338632	39	53.291	3.62347e-05
2	0	0	0	0	73.9426	-1.0394	-1.03931	-0.0359355	1	-0.000411605	39	55.2906	3.73481e-05
2	0	0	0	0	75.9422	-1.0594	-1.05932	-0.0364043	1	-0.000485304	39	57.2902	3.85636e-05
2	0	0	1	0	77.942	-1.07939	-1.07931	-0.0366537	1	-0.000559874	39	59.29	3.95607e-05
2	0	0	1	0	79.9416	-1.09939	-1.09929	-0.0373731	1	-0.000635782	39	61.2896	4.10838e-05
2	0	0	1	0	81.9412	-1.11939	-1.1193	-0.0381254	1	-0.000713343	39	63.2892	4.26738e-05
2	0	0	0	0	83.941	-1.13938	-1.1393	-0.0614041	1	-0.00080102	39	65.289	6.99576e-05
2	0	0	0	0	85.9406	-1.15938	-1.15928	-0.200583	1	-0.00109514	39	67.2886	0.000232532
2	0	0	0	0	87.9402	-1.17938	-1.17925	-0.170463	1	-0.001478	39	69.2882	0.000201019
2	0	0	1	0	89.94	-1.19937	-1.19929	-0.162483	1	-0.00180725	39	71.288	0.000194865
2	0	0	1	0	91.9396	-1.21937	-1.21929	-0.215343	1	-0.0021766	39	73.2876	0.000262566
2	0	0	1	0	93.9392	-1.23937	-1.23927	-0.300779	1	-0.00269174	39	75.2872	0.000372747
2	0	0	1	0	95.9389	-1.25936	-1.25927	-0.469156	1	-0.00344952	39	77.2869	0.000590795
2	0	0	0	0	97.9386	-1.27936	-1.27927	-0.733484	1	-0.00460261	39	79.2866	0.000938321
2	0	0	0	0	99.9382	-1.29936	-1.29927	-1.59368	1	-0.00679868	39	81.2862	0.00207063
2	0	0	1	0	101.938	-1.31935	-1.31928	-2.76758	1	-0.0111734	39	83.2859	0.0036512
2	0	0	1	0	103.938	-1.33935	-1.33927	-4.06719	1	-0.0179874	39	85.2856	0.00544705
2	0	0	1	1	105.758	-1.34245	-1.34237	-4.41946	2	-0.02619	39	87.1057	0.00593254
2	0	0	1	1	107.757	-1.32245	-1.32235	-3.53038	2	-0.0340986	39	89.1054	0.0046684
2	0	0	1	1	109.757	-1.30246	-1.30236	-2.80817	2	-0.0403921	39	91.105	0.00365725
2	0	0	1	1	111.757	-1.28246	-1.28237	-2.24715	2	-0.045398	39	93.1046	0.00288168
2	0	0	0	1	113.756	-1.26246	-1.26237	-1.85682	2	-0.0494744	39	95.1044	0.002344
2	0	0	0	1	115.756	-1.24247	-1.2424	-1.5953	2	-0.0529127	39	97.104	0.00198199
2	0	0	0	1	117.756	-1.22247	-1.22239	-1.4142	2	-0.0559088	39	99.1036	0.0017287
2	0	0	1	1	119.755	-1.20247	-1.20239	-1.26029	2	-0.0585812	39	101.103	0.00151536
2	0	0	1	1	121.755	-1.18248	-1.18238	-1.10309	2	-0.0609426	39	103.103	0.00130427
2	0	0	1	1	123.755	-1.16248	-1.16238	-0.873848	2	-0.0629217	39	105.103	0.00101575
2	0	0	0	1	125.754	-1.14248	-1.14239	-0.626878	2	-0.0644193	39	107.102	0.000716138
2	0	0	0	1	127.754	-1.12249	-1.12238	-0.41039	2	-0.0654431	39	109.102	0.000460614
2	0	0	0	1	129.754	-1.10249	-1.10238	-0.244811	2	-0.066084	39	111.102	0.000269875
2	0	0	1	1	131.753	-1.08249	-1.0824	-0.129478	2	-0.066448	39	113.101	0.000140147
2	0	0	1	1	133.753	-1.0625	-1.06238	-0.0540024	2	-0.0666225	39	115.101	5.73713e-05
2	0	0	1	1	135.753	-1.0425	-1.0424	-0.0123759	2	-0.0666818	39	117.101	1.29007e-05
2	1	0	1	1	137.752	-1.0225	-1.02238	0.0192386	2	-0.0666708	39	1.1997	-1.96691e-05
2	1	0	0	1	139.752	-1.00251	-1.00239	0.0338286	2	-0.066616	39	3.1995	-3.39097e-05
2	1	0	0	1	141.752	-0.982511	-0.982428	0.0513184	2	-0.0665285	39	5.1991	-5.04167e-05
2	1	0	0	1	143.751	-0.962514	-0.962428	0.0727854	2	-0.0664038	39	7.1987	-7.00506e-05
2	1	0	1	1	145.751	-0.942518	-0.942437	0.103143	2	-0.0662277	39	9.1985	-9.72056e-05
2	1	0	1	1	147.751	-0.922521	-0.922437	0.138565	2	-0.0659841	39	11.1981	-0.000127817
2	1	0	1	1	149.75	-0.902524	-0.902401	0.167307	2	-0.0656745	39	13.1977	-0.000150978
2	1	0	0	1	151.75	-0.882528	-0.88243	0.177803	2	-0.0653244	39	15.1975	-0.000156899
2	1	0	0	1	153.75	-0.862531	-0.862431	0.169755	2	-0.064975	39	17.1971	-0.000146402
2	1	0	0	1	155.749	-0.842535	-0.842441	0.157275	2	-0.064643	39	19.1967	-0.000132495
2	1	0	1	1	157.749	-0.822538	-0.82245	0.13495	2	-0.0643478	39	21.1965	-0.000110989
2	1	0	1	1	159.749	-0.802541	-0.802449	0.111242	2	-0.0640993	39	23.1961	-8.92659e-05
2	1	0	1	1	161.748	-0.782545	-0.782476	0.0880128	2	-0.0638988	39	25.1957	-6.88679e-05
2	1	0	0	1	163.748	-0.762548	-0.762495	0.066278	2	-0.063743	39	27.1955	-5.05367e-05
2	1	0	0	1	165.748	-0.742552	-0.742475	0.0489356	2	-0.0636264	39	29.1951	-3.63334e-05
2	1	0	0	1	167.747	-0.722555	-0.722485	0.0361146	2	-0.0635399	39	31.1947	-2.60922e-05
2	1	0	1	1	169.747	-0.702558	-0.702478	0.0273776	2	-0.0634751	39	33.1944	-1.92321e-05
2	1	0	1	1	171.747	-0.682562	-0.682488	0.0215881	2	-0.0634248	39	35.1941	-1.47337e-05
2	1	0	1	1	173.746	-0.662565	-0.662464	0.0176015	2	-0.063384	39	37.1937	-1.16604e-05
2	1	0	1	1	175.746	-0.642568	-0.642502	0.0146407	2	-0.06335	39	39.1933	-9.40666e-06
2	1	0	0	1	177.746	-0.622572	-0.622473	0.0123688	2	-0.0633212	39	41.1931	-7.69925e-06
2	1	0	0	1	179.745	-0.602575	-0.602494	0.0106545	2	-0.0632964	39	43.1927	-6.41927e-06
2	1	0	0	1	181.745	-0.582578	-0.582497	0.00963112	2	-0.0632745	39	45.1923	-5.6101e-06
2	1	0	1	1	183.745	-0.562582	-0.562506	0.00875687	2	-0.0632543	39	47.1921	-4.92579e-06
2	1	0	1	1	185.744	-0.542585	-0.542505	0.00842029	2	-0.0632354	39	49.1917	-4.56805e-06
2	1	0	1	1	187.744	-0.522589	-0.52251	0.00806911	2	-0.0632173	39	51.1913	-4.21619e-06
2	1	0	0	1	189.744	-0.502592	-0.502518	0.00788811	2	-0.0631998	39	53.1911	-3.96392e-06
2	1	0	0	1	191.743	-0.482595	-0.482543	0.00798794	2	-0.0631825	39	55.1907	-3.85453e-06
2	1	0	0	1	193.743	-0.462599	-0.462551	0.00773864	2	-0.0631656	39	57.1903	-3.57952e-06
2	1	0	1	1	195.743	-0.442602	-0.442521	0.00771488	2	-0.0631488	39	59.1901	-3.414e-06
2	1	0	1	1	197.742	-0.422605	-0.422548	0.00768786	2	-0.063132	39	61.1897	-3.24849e-06
2	1	0	1	1	199.742	-0.402609	-0.402528	0.00790292	2	-0.0631149	39	63.1893	-3.18115e-06
2	1	0	1	1	201.741	-0.382613	-0.382507	0.00797511	2	-0.0630977	39	65.189	-3.05053e-06
2	1	0	0	1	203.741	-0.362616	-0.362493	0.0080998	2	-0.0630802	39	67.1887	-2.93612e-06
2	1	0	0	1	205.741	-0.342619	-0.342517	0.00827289	2	-0.0630623	39	69.1883	-2.83361e-06
2	1	0	1	1	207.74	-0.322621	-0.322551	0.00858739	2	-0.0630442	39	71.188	-2.76987e-06
2	1	0	1	1	209.74	-0.302626	-0.302549	0.00868924	2	-0.0630257	39	73.1877	-2.62892e-06
2	1	0	0	1	211.56	-0.315524	-0.315452	0.00668435	2	-0.0630128	39	75.0079	-2.10859e-06
2	1	0	0	1	213.56	-0.33552	-0.335466	0.00543594	2	-0.0630023	39	77.0075	-1.82357e-06
2	1	0	1	1	215.56	-0.355517	-0.355441	0.00453528	2	-0.0629936	39	79.0073	-1.61203e-06
2	1	0	1	1	217.559	-0.375513	-0.375446	0.00375588	2	-0.0629864	39	81.0069	-1.41013e-06
2	1	0	1	1	219.559	-0.39551	-0.395442	0.00335476	2	-0.0629804	39	83.0065	-1.32661e-06
2	1	0	0	1	221.559	-0.415507	-0.415453	0.00311007	2	-0.0629751	39	85.0063	-1.29209e-06
2	1	0	0	1	223.558	-0.435503	-0.435427	0.00260635	2	-0.0629707	39	87.0059	-1.13488e-06
2	1	0	0	1	225.558	-0.4555	-0.455453	0.00241404	2	-0.062967	39	89.0055	-1.09948e-06
2	1	0	1	1	227.558	-0.475497	-0.475427	0.0022297	2	-0.0629638	39	91.0053	-1.06006e-06
2	1	0	1	1	229.557	-0.495493	-0.495403	0.00195827	2	-0.0629612	39	93.0049	-9.70136e-07
2	1	0	1	1	229.607	-0.496043	-0.495997	-0.00128331	2	-0.0629611	39	93.0543	6.36519e-07

File: Fig 3_RRDE-np-Fe2O3_10mvs_ring.mpt
mode	ox/red	error	control changes	counter inc.	time/s	control/V	Ewe/V	<I>/mA	cycle number	(Q-Qo)/C	I Range	step time/s	P/W
2	0	0	1	0	0.000000000000000E+000	-0.299976	-0.299944	-0.0754633	1	0.0000000E+000	39	0.000000000000000E+000	2.26348e-05
2	0	0	1	0	0.155	-0.301526	-0.301468	-0.00326055	1	-1.88831e-06	39	0.1	9.82953e-07
2	0	0	1	0	0.355	-0.303526	-0.303465	-0.00108608	1	-2.42592e-06	39	0.3	3.29588e-07
2	0	0	1	0	0.555	-0.305525	-0.305456	-0.000336023	1	-2.68837e-06	39	0.5	1.0264e-07
2	0	0	1	0	0.755	-0.307525	-0.307451	0.000173558	1	-2.81798e-06	39	0.7	-5.33606e-08
2	0	0	1	0	0.955	-0.309525	-0.309453	0.000197914	1	-2.89278e-06	39	0.9	-6.1245e-08
2	0	0	1	0	1.1549	-0.311525	-0.311468	0.000472044	1	-2.94878e-06	39	1.0999	-1.47027e-07
2	1	0	0	0	1.3548	-0.313524	-0.313451	0.000384294	1	-2.97622e-06	39	1.2998	-1.20457e-07
2	1	0	0	0	1.5548	-0.315524	-0.315463	0.000623819	1	-3.00628e-06	39	1.4998	-1.96792e-07
2	1	0	0	0	1.7548	-0.317523	-0.317464	0.000747384	1	-2.99475e-06	39	0.1	-2.37267e-07
2	1	0	0	0	1.9548	-0.319523	-0.319438	0.00072108	1	-2.96045e-06	39	0.3	-2.3034e-07
2	1	0	0	0	2.1548	-0.321522	-0.321468	0.000806802	1	-2.93905e-06	39	0.5	-2.59361e-07
2	1	0	1	0	2.3546	-0.323522	-0.323472	0.000670893	1	-2.91154e-06	39	0.6998	-2.17015e-07
2	1	0	1	0	2.5546	-0.325522	-0.325462	0.000841149	1	-2.87269e-06	39	0.8998	-2.73762e-07
2	1	0	1	0	2.7546	-0.327522	-0.327462	0.000844887	1	-2.83052e-06	39	1.0998	-2.76669e-07
2	1	0	1	0	2.9546	-0.329521	-0.329453	0.000783063	1	-2.78493e-06	39	1.2998	-2.57982e-07
2	1	0	1	0	3.1546	-0.331521	-0.331453	0.000795445	1	-2.73827e-06	39	1.4998	-2.63653e-07
2	1	0	1	0	3.3546	-0.33352	-0.333438	0.000903293	1	-2.69894e-06	39	1.6998	-3.01192e-07
2	0	0	0	0	3.5544	-0.33552	-0.335445	0.000865914	1	-2.6505e-06	39	1.8996	-2.90466e-07
2	0	0	0	0	3.7544	-0.33752	-0.337462	0.000726031	1	-2.60279e-06	39	2.0996	-2.45008e-07
2	1	0	0	0	3.9544	-0.339519	-0.339436	0.000985351	1	-2.55964e-06	39	2.2996	-3.34464e-07
2	0	0	0	0	4.1544	-0.341519	-0.341427	0.000789211	1	-2.49526e-06	39	2.4996	-2.69458e-07
2	0	0	0	0	4.3544	-0.343519	-0.343427	0.000725807	1	-2.46323e-06	39	2.6996	-2.49262e-07
2	1	0	0	0	4.5544	-0.345518	-0.345442	0.000829611	1	-2.42237e-06	39	2.8996	-2.86582e-07
2	1	0	1	0	4.7542	-0.347518	-0.347448	0.000872394	1	-2.37998e-06	39	3.0994	-3.03112e-07
2	1	0	1	0	4.9542	-0.349518	-0.349445	0.000821393	1	-2.33183e-06	39	3.2994	-2.87032e-07
2	0	0	1	0	5.1542	-0.351517	-0.35146	0.000852043	1	-2.30328e-06	39	3.4994	-2.99459e-07
2	0	0	1	0	5.3542	-0.353517	-0.353451	0.000909196	1	-2.26139e-06	39	3.6994	-3.21357e-07
2	1	0	1	0	5.5542	-0.355517	-0.355459	0.000921389	1	-2.20133e-06	39	3.8994	-3.27516e-07
2	1	0	1	0	5.7542	-0.357516	-0.357439	0.00075558	1	-2.17622e-06	39	4.0994	-2.70074e-07
2	1	0	0	0	5.954	-0.359516	-0.359437	0.000889931	1	-2.14812e-06	39	4.2992	-3.19875e-07
2	1	0	0	0	6.154	-0.361516	-0.361444	0.000890867	1	-2.10677e-06	39	4.4992	-3.21998e-07
2	1	0	0	0	6.354	-0.363515	-0.363433	0.000835491	1	-2.0658e-06	39	4.6992	-3.03645e-07
2	1	0	0	0	6.554	-0.365515	-0.365436	0.000835165	1	-2.01229e-06	39	4.8992	-3.05199e-07
2	1	0	0	0	6.754	-0.367515	-0.367426	0.000829096	1	-1.95686e-06	39	5.0992	-3.04631e-07
2	1	0	0	0	6.954	-0.369514	-0.369449	0.000834444	1	-1.91721e-06	39	5.2992	-3.08285e-07
2	1	0	1	0	7.1538	-0.371514	-0.371468	0.000887047	1	-1.86553e-06	39	5.499	-3.2951e-07
2	1	0	1	0	7.3538	-0.373514	-0.373451	0.000748884	1	-1.84181e-06	39	5.699	-2.79671e-07
2	1	0	1	0	7.5538	-0.375513	-0.375451	0.000795142	1	-1.82055e-06	39	5.899	-2.98537e-07
2	1	0	1	0	7.7538	-0.377513	-0.377444	0.000768417	1	-1.78874e-06	39	6.099	-2.90034e-07
2	1	0	1	0	7.9538	-0.379513	-0.379437	0.000793906	1	-1.76459e-06	39	6.299	-3.01237e-07
2	1	0	1	0	8.1538	-0.381512	-0.381463	0.000777838	1	-1.72116e-06	39	6.499	-2.96717e-07
2	1	0	0	0	8.3536	-0.383512	-0.383464	0.000728009	1	-1.68768e-06	39	6.6988	-2.79165e-07
2	1	0	0	0	8.5536	-0.385512	-0.385446	0.000961639	1	-1.62793e-06	39	6.8988	-3.7066e-07
2	1	0	0	0	8.7536	-0.387511	-0.387433	0.000796289	1	-1.56716e-06	39	7.0988	-3.08508e-07
2	1	0	0	0	8.9536	-0.389511	-0.389451	0.000893867	1	-1.51761e-06	39	7.2988	-3.48118e-07
2	1	0	0	0	9.1536	-0.391511	-0.391454	0.00093355	1	-1.47379e-06	39	7.4988	-3.65442e-07
2	1	0	0	0	9.3536	-0.39351	-0.393443	0.000945649	1	-1.41134e-06	39	7.6988	-3.72059e-07
2	1	0	1	0	9.5534	-0.39551	-0.395463	0.00104368	1	-1.35573e-06	39	7.8986	-4.12735e-07
2	1	0	1	0	9.7534	-0.39751	-0.397439	0.000896064	1	-1.3048e-06	39	8.0986	-3.56131e-07
2	1	0	1	0	9.9534	-0.399509	-0.399454	0.00100035	1	-1.25534e-06	39	8.2986	-3.99594e-07
2	1	0	1	0	10.1534	-0.401509	-0.40145	0.000964932	1	-1.20824e-06	39	8.4986	-3.87372e-07
2	1	0	1	0	10.3534	-0.403509	-0.403453	0.000889022	1	-1.15956e-06	39	8.6986	-3.58679e-07
2	1	0	1	0	10.5533	-0.405507	-0.40546	0.000947137	1	-1.10891e-06	39	8.8985	-3.84026e-07
2	1	0	0	0	10.7532	-0.407508	-0.407436	0.000924756	1	-1.06712e-06	39	9.0984	-3.76779e-07
2	1	0	0	0	10.9532	-0.409508	-0.40946	0.000914522	1	-1.02283e-06	39	9.2984	-3.7446e-07
2	1	0	0	0	11.1532	-0.411507	-0.411461	0.000868854	1	-9.72001e-07	39	9.4984	-3.575e-07
2	1	0	0	0	11.3532	-0.413507	-0.41347	0.000888239	1	-9.32519e-07	39	9.6984	-3.6726e-07
2	1	0	0	0	11.5532	-0.415507	-0.415463	0.000798297	1	-9.03065e-07	39	9.8984	-3.31663e-07
2	1	0	1	0	11.7531	-0.417505	-0.417443	0.000869368	1	-8.6362e-07	39	10.0983	-3.62912e-07
2	1	0	1	0	11.953	-0.419506	-0.419453	0.000820648	1	-8.272e-07	39	10.2982	-3.44223e-07
2	1	0	1	0	12.153	-0.421506	-0.421465	0.000829981	1	-7.86718e-07	39	10.4982	-3.49808e-07
2	1	0	1	0	12.353	-0.423505	-0.423474	0.000827462	1	-7.48004e-07	39	10.6982	-3.50409e-07
2	1	0	1	0	12.553	-0.425505	-0.425464	0.000642095	1	-7.28541e-07	39	10.8982	-2.73188e-07
2	1	0	1	0	12.753	-0.427505	-0.427454	0.000824738	1	-6.92681e-07	39	11.0982	-3.52538e-07
2	1	0	1	0	12.89	-0.428954	-0.428896	-0.0024041	1	-6.79362e-07	39	11.2352	1.03111e-06