Folder: Magnetite2026/Fig 3

Note: README.md
# Magnetite2026
Data and technoeconomic analysis supporting the results and discussion for Shekhar et al. 2026

A Jupyter notebook is available to view and modify the model assumptions used to estimate a simplified levelized cost of Fe. 

Cost estimates for the stack and balance-of-plant (BOP) were derived from published data on chlor-alkali and metal-electrowinning processes.

Konovalova, A.; Goldman, A. C.; Shekhar, R.; Triplett, I.; Moutarlier, L. J.; Kwak, M.; Kempler, P. A. Pathways to Electrochemical Ironmaking at Scale Via the Direct Reduction of Fe2 O3. ACS Energy Lett. 2025, 10 (4), 1851–1857. https://doi.org/10.1021/acsenergylett.5c00166

Hofmann, M.; Müller, R.; Christidis, A.; Fischer, P.; Klaucke, F.; Vomberg, S.; Tsatsaronis, G. Flexible and Economical Operation of Chlor‐alkali Process with Subsequent Polyvinyl Chlo-ride Production. AIChE J. 2022, 68 (1), e17480. https://doi.org/10.1002/aic.17480.

Klaucke, F.; Müller, R.; Hofmann, M.; Weigert, J.; Fischer, P.; Vomberg, S.; Tsatsaronis, G.; Repke, J.-U. Chlor-Alkali Process with Subsequent Polyvinyl Chloride Production─Cost Analysis and Economic Evaluation of Demand Response. Ind. Eng. Chem. Res. 2023, 62 (19), 7336–7351. https://doi.org/10.1021/acs.iecr.2c04188.

A simplified levelized cost of iron, X_Fe, was calculated based on the levelized cost of capital and operating costs and an annual revenue for co-sale of Cl2 (Equation 4, Supporting Information)
X_Fe = ∑_i (C_i) -R_Cl2

Raw data is sorted by figures available in the manuscript.
an-Fe2O3 refers to a low surface area hematite sample
pc-Fe2O3 refers to a high surface area hematite sample
bf-Fe2O3 refers to a blast-furnace grade iron ore concentrate
np-Fe3O4 refers to a synthetic magnetite sample
prec-Fe3O4 refers to a reprecipitated iron ore concentrate which was high surface area.

File: Fig 3_np-Fe2O3_5mVs_1.mpt
mode	ox/red	error	control changes	counter inc.	time/s	control/V	Ewe/V	<I>/mA	cycle number	(Q-Qo)/C	I Range	step time/s	P/W
2	1	0	1	0	0.000000000000000E+000	-0.30002	-0.299809	0.0260646	1	0.0000000E+000	40	0.000000000000000E+000	-7.8144e-06
2	1	0	1	0	3.5104	-0.317572	-0.317326	0.000497743	1	3.97766e-06	40	3.4004	-1.57947e-07
2	1	0	1	0	7.1108	-0.335573	-0.335322	9.09321e-05	1	4.78548e-06	40	7.0008	-3.04915e-08
2	1	0	0	0	10.711	-0.353575	-0.353357	-9.75623e-05	1	4.48918e-06	40	2.8002	3.44743e-08
2	1	0	0	0	14.3114	-0.371577	-0.371341	-0.000250022	1	3.55602e-06	40	6.4006	9.28434e-08
2	1	0	1	0	17.9116	-0.389578	-0.389332	-0.000362931	1	2.14366e-06	40	10.0008	1.41301e-07
2	0	0	1	0	21.512	-0.40758	-0.407331	-0.000409614	1	4.05314e-07	40	13.6012	1.66849e-07
2	0	0	1	0	25.1124	-0.425582	-0.425359	-0.000478926	1	-1.56706e-06	40	17.2016	2.03715e-07
2	0	0	0	0	28.7126	-0.443583	-0.443337	-0.000547168	1	-3.75325e-06	40	20.8018	2.4258e-07
2	0	0	0	0	32.313	-0.461585	-0.461385	-0.00059704	1	-6.1364e-06	40	24.4022	2.75465e-07
2	0	0	1	0	35.9133	-0.479586	-0.479363	-0.000633441	1	-8.68861e-06	40	28.0025	3.03648e-07
2	0	0	1	0	39.5136	-0.497588	-0.497342	-0.000683067	1	-1.13751e-05	40	31.6028	3.39718e-07
2	0	0	1	0	43.114	-0.51559	-0.515338	-0.000724118	1	-1.42355e-05	40	35.2032	3.73165e-07
2	0	0	0	0	46.7142	-0.533591	-0.53338	-0.000781781	1	-1.72634e-05	40	38.8034	4.16986e-07
2	0	0	0	0	50.3146	-0.551593	-0.551356	-0.000830679	1	-2.04592e-05	40	42.4038	4.58e-07
2	0	0	0	0	53.915	-0.569595	-0.569359	-0.000865762	1	-2.38181e-05	40	46.0042	4.92929e-07
2	0	0	1	0	57.5152	-0.587596	-0.587331	-0.000912196	1	-2.73436e-05	40	49.6044	5.35761e-07
2	0	0	1	0	61.1156	-0.605598	-0.605367	-0.000985745	1	-3.11159e-05	40	53.2048	5.96738e-07
2	1	0	0	0	64.7158	-0.623599	-0.623365	-0.00106047	1	-3.51689e-05	40	56.805	6.61063e-07
2	0	0	0	0	68.3162	-0.641601	-0.641393	-0.00115699	1	-3.95678e-05	40	60.4054	7.42084e-07
2	0	0	0	0	71.9166	-0.659603	-0.659371	-0.00127774	1	-4.43548e-05	40	64.0058	8.42507e-07
2	0	0	1	0	75.5168	-0.677604	-0.677367	-0.00142162	1	-4.96319e-05	40	67.606	9.62956e-07
2	0	0	1	0	79.1172	-0.695606	-0.695393	-0.00160728	1	-5.55154e-05	40	71.2064	1.11769e-06
2	0	0	0	0	82.7174	-0.713607	-0.713378	-0.00181331	1	-6.21058e-05	40	74.8066	1.29357e-06
2	0	0	0	0	86.3178	-0.731609	-0.731371	-0.00201367	1	-6.94277e-05	40	78.407	1.47274e-06
2	0	0	0	0	89.9182	-0.749611	-0.749369	-0.00220397	1	-7.74482e-05	40	82.0074	1.65159e-06
2	0	0	1	0	93.5184	-0.767612	-0.767377	-0.00233164	1	-8.60689e-05	40	85.6076	1.78925e-06
2	0	0	1	0	97.1188	-0.785614	-0.785358	-0.00246874	1	-9.51954e-05	40	89.208	1.93884e-06
2	0	0	1	0	100.719	-0.803615	-0.803365	-0.0025861	1	-0.000104765	40	92.8083	2.07759e-06
2	0	0	0	0	104.319	-0.821617	-0.821377	-0.00271305	1	-0.000114772	40	96.4086	2.22844e-06
2	0	0	0	0	107.92	-0.839619	-0.839367	-0.00286385	1	-0.000125267	40	100.009	2.40382e-06
2	0	0	1	0	111.52	-0.85762	-0.857379	-0.00311146	1	-0.000136477	40	103.609	2.6677e-06
2	0	0	1	0	115.12	-0.875622	-0.875381	-0.00346772	1	-0.00014876	40	107.21	3.03557e-06
2	0	0	1	0	118.721	-0.893624	-0.89339	-0.00411086	1	-0.000162814	40	110.81	3.6726e-06
2	0	0	0	0	122.321	-0.911625	-0.911402	-0.00527551	1	-0.000180034	40	114.41	4.80812e-06
2	0	0	0	0	125.921	-0.929627	-0.929397	-0.00744847	1	-0.000203112	40	118.011	6.92259e-06
2	0	0	1	0	129.522	-0.947628	-0.947373	-0.0110181	1	-0.000236486	40	121.611	1.04382e-05
2	0	0	1	0	133.122	-0.96563	-0.965387	-0.015794	1	-0.000285108	40	125.211	1.52473e-05
2	0	0	1	0	136.722	-0.983632	-0.983401	-0.0203075	1	-0.000351116	40	128.812	1.99704e-05
2	0	0	0	0	140.323	-1.00163	-1.00138	-0.0226325	1	-0.000429746	40	132.412	2.26638e-05
2	0	0	0	0	143.923	-1.01964	-1.01936	-0.0238127	1	-0.000513993	40	136.012	2.42736e-05
2	0	0	1	0	147.523	-1.03764	-1.03739	-0.0247453	1	-0.000602142	40	139.612	2.56706e-05
2	0	0	1	0	151.124	-1.05564	-1.05538	-0.0254321	1	-0.000693206	40	143.213	2.68404e-05
2	0	0	1	0	154.724	-1.07364	-1.07339	-0.02596	1	-0.000786364	40	146.813	2.78652e-05
2	0	0	0	0	158.324	-1.09164	-1.09138	-0.0263733	1	-0.000881329	40	150.413	2.87833e-05
2	0	0	0	0	161.925	-1.10964	-1.10938	-0.0268289	1	-0.000977842	40	154.014	2.97634e-05
2	0	0	1	0	165.525	-1.12765	-1.12739	-0.0293356	1	-0.00107735	40	157.614	3.30725e-05
2	0	0	1	0	169.125	-1.14565	-1.14541	-0.100468	1	-0.00132368	40	161.214	0.000115077
2	0	0	1	0	172.726	-1.16365	-1.16339	-0.081619	1	-0.00164862	40	164.815	9.49547e-05
2	0	0	0	0	176.326	-1.18165	-1.18139	-0.0712732	1	-0.00192108	40	168.415	8.42017e-05
2	0	0	0	0	179.926	-1.19965	-1.19942	-0.0671185	1	-0.00216804	40	172.015	8.05033e-05
2	0	0	0	0	183.527	-1.21765	-1.2174	-0.0756009	1	-0.00242104	40	175.616	9.20369e-05
2	0	0	1	0	187.127	-1.23565	-1.23538	-0.100057	1	-0.00273269	40	179.216	0.000123609
2	0	0	1	0	190.727	-1.25366	-1.25341	-0.148354	1	-0.00317264	40	182.816	0.000185947
2	0	0	1	0	194.327	-1.27166	-1.27141	-0.232454	1	-0.00384608	40	186.417	0.000295545
2	0	0	0	0	197.928	-1.28966	-1.28939	-0.382833	1	-0.00492995	40	190.017	0.00049362
2	0	0	0	0	201.528	-1.30766	-1.30744	-0.717959	1	-0.00681708	40	193.617	0.000938687
2	0	0	1	0	205.128	-1.32566	-1.32555	-1.81918	1	-0.0110558	40	197.218	0.00241141
2	0	0	1	1	212.87	-1.31906	-1.31905	-2.18479	2	-0.0296669	40	204.959	0.00288183
2	0	0	1	1	216.47	-1.30106	-1.30092	-1.62147	2	-0.0364295	40	208.559	0.00210941
2	0	0	1	1	220.07	-1.28306	-1.28292	-1.24423	2	-0.0415189	40	212.16	0.00159625
2	0	0	0	1	223.671	-1.26506	-1.26486	-1.00963	2	-0.0455423	40	215.76	0.00127704
2	0	0	0	1	227.271	-1.24706	-1.24687	-0.857632	2	-0.0488804	40	219.36	0.00106936
2	0	0	1	1	230.871	-1.22905	-1.22885	-0.748303	2	-0.0517627	40	222.96	0.000919551
2	0	0	1	1	234.472	-1.21105	-1.21088	-0.646301	2	-0.0542701	40	226.561	0.000782592
2	0	0	1	1	238.072	-1.19305	-1.19283	-0.540127	2	-0.056408	40	230.161	0.000644279
2	0	0	0	1	241.672	-1.17505	-1.17482	-0.422642	2	-0.0581412	40	233.761	0.000496528
2	0	0	0	1	245.273	-1.15705	-1.1568	-0.302767	2	-0.0594406	40	237.362	0.000350242
2	0	0	1	1	248.873	-1.13905	-1.1388	-0.201099	2	-0.0603364	40	240.962	0.000229012
2	0	0	1	1	252.473	-1.12104	-1.12081	-0.12798	2	-0.0609188	40	244.562	0.000143441
2	0	0	1	1	256.074	-1.10304	-1.10279	-0.0773392	2	-0.0612816	40	248.163	8.52893e-05
2	0	0	0	1	259.674	-1.08504	-1.0848	-0.0428647	2	-0.0614924	40	251.763	4.64995e-05
2	0	0	0	1	263.274	-1.06704	-1.0668	-0.0199261	2	-0.061601	40	255.363	2.12572e-05
2	0	0	1	1	266.875	-1.04904	-1.04881	-0.00231975	2	-0.06164	40	258.964	2.43299e-06
2	1	0	1	1	270.475	-1.03104	-1.0308	0.0145153	2	-0.0616144	40	3.0002	-1.49623e-05
2	1	0	1	1	274.075	-1.01303	-1.0128	0.0289376	2	-0.061534	40	6.6006	-2.9308e-05
2	1	0	0	1	277.675	-0.995033	-0.994786	0.0402216	2	-0.061407	40	10.2008	-4.00119e-05
2	1	0	0	1	281.276	-0.977031	-0.976805	0.0473586	2	-0.0612475	40	13.8012	-4.62601e-05
2	1	0	0	1	284.876	-0.959029	-0.958808	0.0513766	2	-0.0610682	40	17.4016	-4.92603e-05
2	1	0	1	1	288.476	-0.941028	-0.940811	0.05324	2	-0.0608794	40	21.0018	-5.00887e-05
2	1	0	1	1	292.077	-0.923026	-0.922772	0.0547844	2	-0.0606846	40	24.6022	-5.05535e-05
2	1	0	0	1	295.677	-0.905025	-0.9048	0.0559673	2	-0.0604843	40	28.2024	-5.06392e-05
2	1	0	0	1	299.277	-0.887023	-0.886794	0.0536592	2	-0.0602853	40	31.8028	-4.75847e-05
2	1	0	0	1	302.878	-0.869021	-0.868788	0.0479003	2	-0.0601008	40	35.4032	-4.16152e-05
2	1	0	1	1	306.478	-0.85102	-0.850781	0.0379668	2	-0.0599451	40	39.0034	-3.23014e-05
2	1	0	1	1	310.078	-0.833018	-0.832781	0.030269	2	-0.0598236	40	42.6038	-2.52074e-05
2	1	0	1	1	313.679	-0.815016	-0.814763	0.0271138	2	-0.0597204	40	46.2042	-2.20913e-05
2	1	0	0	1	317.279	-0.797015	-0.796776	0.0239908	2	-0.0596277	40	49.8044	-1.91153e-05
2	1	0	0	1	320.879	-0.779013	-0.778767	0.019959	2	-0.0595483	40	53.4048	-1.55434e-05
2	1	0	1	1	324.48	-0.761012	-0.760761	0.0156469	2	-0.059484	40	57.005	-1.19036e-05
2	1	0	1	1	328.08	-0.74301	-0.742755	0.0120589	2	-0.059434	40	60.6054	-8.9568e-06
2	1	0	1	1	331.68	-0.725008	-0.724755	0.00933951	2	-0.0593955	40	64.2058	-6.76886e-06
2	1	0	0	1	335.281	-0.707007	-0.706754	0.00714396	2	-0.0593656	40	67.806	-5.04902e-06
2	1	0	0	1	338.881	-0.689005	-0.688765	0.00549878	2	-0.0593427	40	71.4064	-3.78737e-06
2	1	0	1	1	342.481	-0.671004	-0.670761	0.0042836	2	-0.0593249	40	75.0066	-2.87327e-06
2	1	0	1	1	346.082	-0.653002	-0.65275	0.0034501	2	-0.0593108	40	78.607	-2.25206e-06
2	1	0	1	1	349.682	-0.635	-0.634755	0.00285283	2	-0.0592992	40	82.2074	-1.81085e-06
2	1	0	0	1	353.282	-0.616999	-0.616767	0.00240452	2	-0.0592895	40	85.8076	-1.48303e-06
2	1	0	0	1	356.883	-0.598997	-0.598735	0.0020677	2	-0.0592811	40	89.408	-1.238e-06
2	1	0	1	1	360.483	-0.580995	-0.580772	0.00182812	2	-0.0592738	40	93.0083	-1.06172e-06
2	1	0	1	1	364.083	-0.562994	-0.562755	0.00165102	2	-0.0592673	40	96.6086	-9.29118e-07
2	1	0	1	1	367.684	-0.544992	-0.544748	0.00151293	2	-0.0592613	40	100.209	-8.24166e-07
2	1	0	0	1	371.284	-0.526991	-0.526756	0.00138029	2	-0.0592558	40	103.809	-7.27078e-07
2	0	0	0	1	374.884	-0.508989	-0.508741	0.00129681	2	-0.0592507	40	107.41	-6.59741e-07
2	1	0	1	1	378.485	-0.490987	-0.490756	0.00121525	2	-0.0592458	40	111.01	-5.9639e-07
2	1	0	1	1	382.085	-0.472986	-0.472718	0.00118393	2	-0.0592412	40	114.61	-5.59665e-07
2	1	0	1	1	385.685	-0.454984	-0.454759	0.00114043	2	-0.0592368	40	118.211	-5.18623e-07
2	1	0	0	1	389.285	-0.436983	-0.436742	0.00110018	2	-0.0592324	40	121.811	-4.80495e-07
2	1	0	0	1	392.886	-0.418981	-0.418748	0.00109721	2	-0.0592282	40	125.411	-4.59453e-07
2	1	0	0	1	396.486	-0.400979	-0.400744	0.0010756	2	-0.059224	40	129.012	-4.31041e-07
2	1	0	1	1	400.086	-0.382978	-0.382756	0.00107871	2	-0.0592198	40	132.612	-4.12882e-07
2	1	0	1	1	403.687	-0.364976	-0.364735	0.00108478	2	-0.0592157	40	136.212	-3.95656e-07
2	1	0	0	1	407.287	-0.346975	-0.346738	0.0011107	2	-0.0592115	40	139.812	-3.8512e-07
2	1	0	0	1	410.887	-0.328973	-0.32875	0.0011322	2	-0.0592073	40	143.413	-3.7221e-07
2	1	0	1	1	411.889	-0.323922	-0.323714	0.00113048	2	-0.0592061	40	144.415	-3.65954e-07

File: Fig 3_RRDE-np-Fe2O3_5mVs.mpt
mode	ox/red	error	control changes	Ns changes	counter inc.	Ns	time/s	control/V	Ewe/V	<I>/mA	dQ/C	(Q-Qo)/C	I Range	Q charge/discharge/mA.h	half cycle	Energy charge/W.h	Energy discharge/W.h	Capacitance charge/µF	Capacitance discharge/µF	step time/s	Q discharge/mA.h	Q charge/mA.h	Capacity/mA.h	Efficiency/%	cycle number	P/W
2	0	1	0	0	0	0	0.1	-0.299985	-0.300379	-0.124165	-1.24165e-05	-1.24165e-05	41	-3.44902e-06	0	0.000000000000000E+000	1.03601e-09	0.000000000000000E+000	0.000000000000000E+000	0.1	3.44902e-06	0.000000000000000E+000	3.44902e-06	0.0000000E+000	0.000000000000000E+000	3.72965e-05
2	0	0	0	0	0	0	1.8	-0.299985	-0.30041	-0.00953831	-3.60957e-05	-3.60957e-05	41	-1.00266e-05	0	0.000000000000000E+000	3.01208e-09	0.000000000000000E+000	1.17933e+06	1.8	1.00266e-05	0.000000000000000E+000	1.00266e-05	0.0000000E+000	0.000000000000000E+000	2.8654e-06
2	0	0	0	0	0	0	3.5	-0.299985	-0.300433	-0.00766256	-5.01411e-05	-5.01411e-05	41	-1.39281e-05	0	0.000000000000000E+000	4.18416e-09	0.000000000000000E+000	936779	3.5	1.39281e-05	0.000000000000000E+000	1.39281e-05	0.0000000E+000	0.000000000000000E+000	2.30208e-06
2	0	0	0	0	0	0	5.2	-0.299985	-0.300448	-0.00668239	-6.23777e-05	-6.23777e-05	41	-1.73271e-05	0	0.000000000000000E+000	5.20531e-09	0.000000000000000E+000	906081	5.2	1.73271e-05	0.000000000000000E+000	1.73271e-05	0.0000000E+000	0.000000000000000E+000	2.00771e-06
2	0	0	0	0	0	0	6.9	-0.299985	-0.300433	-0.00564091	-7.27375e-05	-7.27375e-05	41	-2.02049e-05	0	0.000000000000000E+000	6.06983e-09	0.000000000000000E+000	1.35895e+06	6.9	2.02049e-05	0.000000000000000E+000	2.02049e-05	0.0000000E+000	0.000000000000000E+000	1.69471e-06
2	0	0	0	0	0	0	8.6	-0.299985	-0.300383	-0.00500621	-8.17733e-05	-8.17733e-05	41	-2.27148e-05	0	0.000000000000000E+000	6.82387e-09	0.000000000000000E+000	2.11066e+07	8.6	2.27148e-05	0.000000000000000E+000	2.27148e-05	0.0000000E+000	0.000000000000000E+000	1.50378e-06
2	0	0	0	0	0	0	10.3	-0.299985	-0.300414	-0.00461936	-8.99313e-05	-8.99313e-05	41	-2.49809e-05	0	0.000000000000000E+000	7.50462e-09	0.000000000000000E+000	2.60812e+06	10.3	2.49809e-05	0.000000000000000E+000	2.49809e-05	0.0000000E+000	0.000000000000000E+000	1.38772e-06
2	0	0	0	0	0	0	12	-0.299985	-0.300448	-0.00427251	-9.74608e-05	-9.74608e-05	41	-2.70724e-05	0	0.000000000000000E+000	8.13292e-09	0.000000000000000E+000	1.41569e+06	12	2.70724e-05	0.000000000000000E+000	2.70724e-05	0.0000000E+000	0.000000000000000E+000	1.28367e-06
2	0	0	0	0	0	0	13.7	-0.299985	-0.300387	-0.0039894	-0.000104508	-0.000104508	41	-2.903e-05	0	0.000000000000000E+000	8.72099e-09	0.000000000000000E+000	1.35919e+07	13.7	2.903e-05	0.000000000000000E+000	2.903e-05	0.0000000E+000	0.000000000000000E+000	1.19836e-06
2	0	0	0	0	0	0	15.4	-0.299985	-0.300421	-0.00381889	-0.00011118	-0.00011118	41	-3.08835e-05	0	0.000000000000000E+000	9.27779e-09	0.000000000000000E+000	2.6402e+06	15.4	3.08835e-05	0.000000000000000E+000	3.08835e-05	0.0000000E+000	0.000000000000000E+000	1.14728e-06
2	0	0	0	0	0	0	17.1	-0.299985	-0.30041	-0.00375495	-0.000117613	-0.000117613	41	-3.26702e-05	0	0.000000000000000E+000	9.81454e-09	0.000000000000000E+000	3.84267e+06	17.1	3.26702e-05	0.000000000000000E+000	3.26702e-05	0.0000000E+000	0.000000000000000E+000	1.12802e-06
2	0	0	0	0	0	0	18.8	-0.299985	-0.300448	-0.003533	-0.000123809	-0.000123809	41	-3.43913e-05	0	0.000000000000000E+000	1.03316e-08	0.000000000000000E+000	1.79841e+06	18.8	3.43913e-05	0.000000000000000E+000	3.43913e-05	0.0000000E+000	0.000000000000000E+000	1.06148e-06
2	0	0	0	0	0	0	20.5	-0.299985	-0.300364	-0.00345615	-0.000129789	-0.000129789	41	-3.60524e-05	0	0.000000000000000E+000	1.08306e-08	0.000000000000000E+000	8.48925e+06	20.5	3.60524e-05	0.000000000000000E+000	3.60524e-05	0.0000000E+000	0.000000000000000E+000	1.0381e-06
2	0	0	0	0	0	0	22.2	-0.299985	-0.30041	-0.00339214	-0.000135649	-0.000135649	41	-3.76802e-05	0	0.000000000000000E+000	1.13196e-08	0.000000000000000E+000	4.43196e+06	22.2	3.76802e-05	0.000000000000000E+000	3.76802e-05	0.0000000E+000	0.000000000000000E+000	1.01903e-06
2	0	0	0	0	0	0	23.9	-0.299985	-0.300375	-0.0033309	-0.000141365	-0.000141365	41	-3.92681e-05	0	0.000000000000000E+000	1.17966e-08	0.000000000000000E+000	3.70581e+07	23.9	3.92681e-05	0.000000000000000E+000	3.92681e-05	0.0000000E+000	0.000000000000000E+000	1.00052e-06
2	0	0	0	0	0	0	25.6	-0.299985	-0.300463	-0.00326909	-0.000146954	-0.000146954	41	-4.08206e-05	0	0.000000000000000E+000	1.2263e-08	0.000000000000000E+000	1.74795e+06	25.6	4.08206e-05	0.000000000000000E+000	4.08206e-05	0.0000000E+000	0.000000000000000E+000	9.82241e-07
2	0	0	0	0	0	0	27.3	-0.299985	-0.300391	-0.00318616	-0.000152435	-0.000152435	41	-4.2343e-05	0	0.000000000000000E+000	1.27203e-08	0.000000000000000E+000	1.32509e+07	27.3	4.2343e-05	0.000000000000000E+000	4.2343e-05	0.0000000E+000	0.000000000000000E+000	9.57092e-07
2	0	0	0	0	0	0	29	-0.299985	-0.300375	-0.00315523	-0.000157841	-0.000157841	41	-4.38449e-05	0	0.000000000000000E+000	1.31715e-08	0.000000000000000E+000	4.13772e+07	29	4.38449e-05	0.000000000000000E+000	4.38449e-05	0.0000000E+000	0.000000000000000E+000	9.47753e-07
2	0	0	0	0	0	0	30.7	-0.299985	-0.300394	-0.00309892	-0.000163166	-0.000163166	41	-4.53239e-05	0	0.000000000000000E+000	1.36158e-08	0.000000000000000E+000	1.06104e+07	30.7	4.53239e-05	0.000000000000000E+000	4.53239e-05	0.0000000E+000	0.000000000000000E+000	9.30898e-07
2	0	0	0	0	0	0	32.4	-0.299985	-0.300387	-0.0030528	-0.000168432	-0.000168432	41	-4.67866e-05	0	0.000000000000000E+000	1.40552e-08	0.000000000000000E+000	2.19055e+07	32.4	4.67866e-05	0.000000000000000E+000	4.67866e-05	0.0000000E+000	0.000000000000000E+000	9.17021e-07
2	0	0	0	0	0	0	34.1	-0.299985	-0.300406	-0.00305401	-0.000173632	-0.000173632	41	-4.82312e-05	0	0.000000000000000E+000	1.44892e-08	0.000000000000000E+000	6.48069e+06	34.1	4.82312e-05	0.000000000000000E+000	4.82312e-05	0.0000000E+000	0.000000000000000E+000	9.17441e-07
2	0	0	0	0	0	0	35.8	-0.299985	-0.300391	-0.00298302	-0.00017876	-0.00017876	41	-4.96556e-05	0	0.000000000000000E+000	1.49171e-08	0.000000000000000E+000	1.55394e+07	35.8	4.96556e-05	0.000000000000000E+000	4.96556e-05	0.0000000E+000	0.000000000000000E+000	8.9607e-07
2	0	0	0	0	0	0	37.5	-0.299985	-0.300402	-0.00299249	-0.000183837	-0.000183837	41	-5.10658e-05	0	0.000000000000000E+000	1.53408e-08	0.000000000000000E+000	7.99034e+06	37.5	5.10658e-05	0.000000000000000E+000	5.10658e-05	0.0000000E+000	0.000000000000000E+000	8.98951e-07
2	0	0	0	0	0	0	39.2	-0.299985	-0.300402	-0.0029535	-0.000188837	-0.000188837	41	-5.24548e-05	0	0.000000000000000E+000	1.5758e-08	0.000000000000000E+000	8.20767e+06	39.2	5.24548e-05	0.000000000000000E+000	5.24548e-05	0.0000000E+000	0.000000000000000E+000	8.87237e-07
2	0	0	0	0	0	0	40.9	-0.299985	-0.300429	-0.0028913	-0.000193792	-0.000193792	41	-5.38311e-05	0	0.000000000000000E+000	1.61715e-08	0.000000000000000E+000	3.89609e+06	40.9	5.38311e-05	0.000000000000000E+000	5.38311e-05	0.0000000E+000	0.000000000000000E+000	8.68629e-07
2	0	0	0	0	0	0	42.6	-0.299985	-0.300406	-0.00290128	-0.000198697	-0.000198697	41	-5.51936e-05	0	0.000000000000000E+000	1.65808e-08	0.000000000000000E+000	7.4162e+06	42.6	5.51936e-05	0.000000000000000E+000	5.51936e-05	0.0000000E+000	0.000000000000000E+000	8.71561e-07
2	0	0	0	0	0	0	44.3	-0.299985	-0.300398	-0.00289575	-0.000203584	-0.000203584	41	-5.65512e-05	0	0.000000000000000E+000	1.69887e-08	0.000000000000000E+000	1.06074e+07	44.3	5.65512e-05	0.000000000000000E+000	5.65512e-05	0.0000000E+000	0.000000000000000E+000	8.69878e-07
2	0	0	0	0	0	0	46	-0.299985	-0.300391	-0.00280933	-0.000208422	-0.000208422	41	-5.78949e-05	0	0.000000000000000E+000	1.73924e-08	0.000000000000000E+000	1.81178e+07	46	5.78949e-05	0.000000000000000E+000	5.78949e-05	0.0000000E+000	0.000000000000000E+000	8.43896e-07
2	0	0	0	0	0	0	47.7	-0.299985	-0.300429	-0.00282727	-0.000213241	-0.000213241	41	-5.92337e-05	0	0.000000000000000E+000	1.77946e-08	0.000000000000000E+000	4.28712e+06	47.7	5.92337e-05	0.000000000000000E+000	5.92337e-05	0.0000000E+000	0.000000000000000E+000	8.49394e-07
2	0	0	0	0	0	0	49.4	-0.299985	-0.300402	-0.00277207	-0.000217988	-0.000217988	41	-6.05523e-05	0	0.000000000000000E+000	1.81907e-08	0.000000000000000E+000	9.51167e+06	49.4	6.05523e-05	0.000000000000000E+000	6.05523e-05	0.0000000E+000	0.000000000000000E+000	8.32734e-07
2	0	0	0	0	0	0	51.1	-0.299985	-0.300406	-0.00277606	-0.000222703	-0.000222703	41	-6.18619e-05	0	0.000000000000000E+000	1.85841e-08	0.000000000000000E+000	8.33074e+06	51.1	6.18619e-05	0.000000000000000E+000	6.18619e-05	0.0000000E+000	0.000000000000000E+000	8.33945e-07
2	0	0	0	0	0	0	52.8	-0.299985	-0.300391	-0.00276604	-0.000227417	-0.000227417	41	-6.31714e-05	0	0.000000000000000E+000	1.89775e-08	0.000000000000000E+000	1.9769e+07	52.8	6.31714e-05	0.000000000000000E+000	6.31714e-05	0.0000000E+000	0.000000000000000E+000	8.30893e-07
2	0	0	0	0	0	0	54.5	-0.299985	-0.300436	-0.00273787	-0.000232075	-0.000232075	41	-6.44652e-05	0	0.000000000000000E+000	1.93662e-08	0.000000000000000E+000	4.04736e+06	54.5	6.44652e-05	0.000000000000000E+000	6.44652e-05	0.0000000E+000	0.000000000000000E+000	8.22556e-07
2	0	0	0	0	0	0	56.2	-0.299985	-0.300444	-0.00272951	-0.000236723	-0.000236723	41	-6.57563e-05	0	0.000000000000000E+000	1.97541e-08	0.000000000000000E+000	3.64028e+06	56.2	6.57563e-05	0.000000000000000E+000	6.57563e-05	0.0000000E+000	0.000000000000000E+000	8.20065e-07
2	0	0	0	0	0	0	57.9	-0.299985	-0.300406	-0.00272169	-0.000241346	-0.000241346	41	-6.70407e-05	0	0.000000000000000E+000	2.01399e-08	0.000000000000000E+000	9.02814e+06	57.9	6.70407e-05	0.000000000000000E+000	6.70407e-05	0.0000000E+000	0.000000000000000E+000	8.17612e-07
2	0	0	0	0	0	0	59.6	-0.299985	-0.300398	-0.00269906	-0.000245948	-0.000245948	41	-6.83189e-05	0	0.000000000000000E+000	2.05239e-08	0.000000000000000E+000	1.28147e+07	59.6	6.83189e-05	0.000000000000000E+000	6.83189e-05	0.0000000E+000	0.000000000000000E+000	8.10792e-07
2	0	0	0	0	0	0	61.3	-0.299985	-0.300364	-0.00267755	-0.000250523	-0.000250523	41	-6.95898e-05	0	0.000000000000000E+000	2.09057e-08	0.000000000000000E+000	1.64504e+07	61.3	6.95898e-05	0.000000000000000E+000	6.95898e-05	0.0000000E+000	0.000000000000000E+000	8.04239e-07
2	0	0	0	0	0	0	62.234	-0.299985	-0.300383	-0.0026681	-0.00025302	-0.00025302	41	-7.02834e-05	0	0.000000000000000E+000	2.1114e-08	0.000000000000000E+000	6.63277e+07	62.234	7.02834e-05	0.000000000000000E+000	7.02834e-05	0.0000000E+000	0.000000000000000E+000	8.01452e-07