Folder: Magnetite2026/Fig 2 (part 4)

File: Fig 2_np-Fe3O4_100mvs.mpt
mode	ox/red	error	control changes	counter inc.	time/s	control/V	Ewe/V	<I>/mA	cycle number	(Q-Qo)/C	I Range	step time/s	P/W
2	1	0	0	0	0.000000000000000E+000	-0.300041	-0.299805	0.614561	1	0.0000000E+000	39	0.000000000000000E+000	-0.000184249
2	1	0	1	0	0.6157	-0.361598	-0.361378	0.00657079	1	1.67965e-05	39	0.6101	-2.37454e-06
2	1	0	1	0	1.2357	-0.423605	-0.423358	-0.000281449	1	1.82242e-05	39	0.06	1.19154e-07
2	0	0	1	0	1.8559	-0.485612	-0.485387	-0.00394022	1	1.67016e-05	39	0.6802	1.91253e-06
2	0	0	1	0	2.4759	-0.547619	-0.547395	-0.00721336	1	1.3055e-05	39	1.3002	3.94855e-06
2	0	0	1	0	3.0959	-0.609625	-0.609389	-0.0110665	1	7.20558e-06	39	1.9202	6.74384e-06
2	0	0	1	0	3.7161	-0.671632	-0.671416	-0.0158026	1	-1.32331e-06	39	2.5404	1.06101e-05
2	0	0	1	0	4.3361	-0.733639	-0.733435	-0.0214033	1	-1.3052e-05	39	3.1604	1.56979e-05
2	0	0	1	0	4.9561	-0.795646	-0.795433	-0.0285817	1	-2.86554e-05	39	3.7804	2.27348e-05
2	0	0	1	0	5.5763	-0.857653	-0.857474	-0.0405928	1	-4.99351e-05	39	4.4006	3.48073e-05
2	0	0	1	0	6.1963	-0.91966	-0.919444	-0.0612313	1	-8.1144e-05	39	5.0206	5.62987e-05
2	0	0	1	0	6.8163	-0.981667	-0.981449	-0.090766	1	-0.000128309	39	5.6406	8.90822e-05
2	0	0	1	0	7.4365	-1.04367	-1.04347	-0.10602	1	-0.000190976	39	6.2608	0.000110629
2	0	0	1	0	8.0565	-1.10568	-1.10546	-0.109225	1	-0.000257493	39	6.8808	0.000120744
2	0	0	1	0	8.6765	-1.16769	-1.16747	-0.270814	1	-0.000350745	39	7.5008	0.000316166
2	0	0	1	0	9.2967	-1.22969	-1.22945	-1.05924	1	-0.000752584	39	8.121	0.00130228
2	0	0	1	0	9.9167	-1.2917	-1.29148	-1.60723	1	-0.00159779	39	8.741	0.00207571
2	0	0	1	1	10.5151	-1.34851	-1.34828	-1.49637	2	-0.00253508	39	9.3394	0.00201752
2	0	0	1	1	11.1351	-1.2865	-1.28629	-0.807447	2	-0.00322958	39	9.9594	0.00103861
2	0	0	1	1	11.7551	-1.22449	-1.22427	-0.406621	2	-0.00359383	39	10.5794	0.000497814
2	0	0	1	1	12.3753	-1.16249	-1.16226	-0.16888	2	-0.00376611	39	11.1996	0.000196283
2	0	0	1	1	12.9953	-1.10048	-1.10025	-0.0332837	2	-0.00382369	39	11.8196	3.66206e-05
2	1	0	1	1	13.6153	-1.03847	-1.03826	0.0346564	2	-0.00382096	39	0.36	-3.59824e-05
2	1	0	1	1	14.2355	-0.976466	-0.976252	0.0735835	2	-0.00378404	39	0.9802	-7.18361e-05
2	1	0	1	1	14.8555	-0.914459	-0.914244	0.126437	2	-0.0037264	39	1.6002	-0.000115594
2	1	0	1	1	15.4755	-0.852453	-0.852275	0.227041	2	-0.00361426	39	2.2202	-0.000193501
2	1	0	1	1	16.0957	-0.790446	-0.790244	0.209907	2	-0.0034728	39	2.8404	-0.000165878
2	1	0	1	1	16.7157	-0.728439	-0.728236	0.15621	2	-0.00335964	39	3.4604	-0.000113758
2	1	0	1	1	17.3357	-0.666432	-0.666224	0.123585	2	-0.00327412	39	4.0804	-8.2335e-05
2	1	0	1	1	17.9559	-0.604425	-0.604194	0.114574	2	-0.00320108	39	4.7006	-6.92247e-05
2	1	0	1	1	18.5759	-0.542418	-0.542196	0.113433	2	-0.00312991	39	5.3206	-6.15027e-05
2	1	0	1	1	19.196	-0.480404	-0.4802	0.104176	2	-0.00306192	39	5.9407	-5.00254e-05
2	1	0	1	1	19.8161	-0.418404	-0.418175	0.102335	2	-0.00299834	39	6.5608	-4.27941e-05
2	1	0	1	1	20.4361	-0.356397	-0.356196	0.0909967	2	-0.00293715	39	7.1808	-3.24126e-05
2	1	0	1	1	21.0459	-0.304591	-0.3044	0.0720452	2	-0.00288438	39	7.7906	-2.19305e-05
2	1	0	1	1	21.6659	-0.366598	-0.366363	0.0266813	2	-0.00285731	39	8.4106	-9.77504e-06
2	1	0	1	1	22.2859	-0.428605	-0.428413	0.0121854	2	-0.00284618	39	9.0306	-5.22037e-06
2	1	0	1	1	22.9061	-0.490612	-0.490404	0.00553179	2	-0.00284117	39	9.6508	-2.71281e-06
2	1	0	1	1	23.5261	-0.552619	-0.552402	0.00137265	2	-0.00283934	39	10.2708	-7.58253e-07
2	0	0	1	1	24.1461	-0.614626	-0.614401	-0.00185374	2	-0.00283966	39	0.39	1.13894e-06
2	0	0	1	1	24.7663	-0.676633	-0.676424	-0.00545303	2	-0.00284206	39	1.0102	3.68856e-06
2	0	0	1	1	25.3863	-0.73864	-0.738413	-0.0108435	2	-0.00284735	39	1.6302	8.00695e-06
2	0	0	1	1	26.0063	-0.800647	-0.800427	-0.0217199	2	-0.00285721	39	2.2502	1.73852e-05
2	0	0	1	1	26.6265	-0.862654	-0.862449	-0.0449984	2	-0.00287787	39	2.8704	3.88088e-05
2	0	0	1	1	27.2465	-0.924661	-0.92448	-0.0563965	2	-0.00291084	39	3.4904	5.21374e-05
2	0	0	1	1	27.8665	-0.986668	-0.986452	-0.0638001	2	-0.00294717	39	4.1104	6.29357e-05
2	0	0	1	1	28.4867	-1.04867	-1.04847	-0.10141	2	-0.00299674	39	4.7306	0.000106325
2	0	0	1	1	29.1067	-1.11068	-1.11047	-0.156939	2	-0.00307785	39	5.3506	0.000174277
2	0	0	1	1	29.7267	-1.17269	-1.17248	-0.22261	2	-0.00319322	39	5.9706	0.000261005
2	0	0	1	1	30.3469	-1.2347	-1.23447	-0.459496	2	-0.0033948	39	6.5908	0.000567234
2	0	0	1	1	30.9669	-1.2967	-1.29648	-0.794596	2	-0.00377942	39	7.2108	0.00103018
2	0	0	1	0	31.5653	-1.34351	-1.34328	-1.17636	3	-0.00439108	39	7.8092	0.00158018
2	0	0	1	0	32.1853	-1.2815	-1.28128	-0.655837	3	-0.00494874	39	8.4292	0.000840312
2	0	0	1	0	32.8053	-1.21949	-1.21929	-0.330138	3	-0.0052453	39	9.0492	0.000402536
2	0	0	1	0	33.4255	-1.15749	-1.15727	-0.135964	3	-0.00538453	39	9.6694	0.000157348
2	0	0	1	0	34.0455	-1.09548	-1.09526	-0.0257994	3	-0.00543091	39	10.2894	2.8257e-05
2	1	0	1	0	34.6655	-1.03347	-1.03329	0.0316882	3	-0.00542728	39	0.38	-3.27432e-05
2	1	0	1	0	35.2857	-0.971466	-0.971257	0.0654161	3	-0.00539466	39	1.0002	-6.35358e-05
2	1	0	1	0	35.9057	-0.909459	-0.909243	0.14829	3	-0.00533375	39	1.6202	-0.000134832
2	1	0	1	0	36.5257	-0.847452	-0.84726	0.267725	3	-0.00520064	39	2.2402	-0.000226833
2	1	0	1	0	37.1459	-0.785445	-0.785246	0.236353	3	-0.00503769	39	2.8604	-0.000185596
2	1	0	1	0	37.7659	-0.723438	-0.723219	0.169039	3	-0.00491281	39	3.4804	-0.000122252
2	1	0	1	0	38.3859	-0.661431	-0.661252	0.129217	3	-0.00482173	39	4.1004	-8.54452e-05
2	1	0	1	0	39.0061	-0.599424	-0.599193	0.114865	3	-0.00474671	39	4.7206	-6.88261e-05
2	1	0	1	0	39.6261	-0.537417	-0.537207	0.105912	3	-0.00467783	39	5.3406	-5.68968e-05
2	1	0	1	0	40.2463	-0.47541	-0.47521	0.0944919	3	-0.00461556	39	5.9608	-4.49035e-05
2	1	0	1	0	40.8663	-0.413403	-0.413199	0.085807	3	-0.00455952	39	6.5808	-3.54554e-05
2	1	0	1	0	41.4863	-0.351397	-0.351211	0.080678	3	-0.00450778	39	7.2008	-2.8335e-05
2	1	0	1	0	42.0961	-0.309592	-0.309394	0.0614301	3	-0.00446052	39	7.8106	-1.90061e-05
2	1	0	1	0	42.7161	-0.371599	-0.371371	0.0297207	3	-0.00443424	39	8.4306	-1.10374e-05
2	1	0	1	0	43.3361	-0.433606	-0.433409	0.0163243	3	-0.00442062	39	9.0506	-7.07511e-06
2	1	0	1	0	43.9563	-0.495613	-0.495413	0.00886442	3	-0.00441326	39	9.6708	-4.39155e-06
2	1	0	1	0	44.5763	-0.55762	-0.557434	0.00380439	3	-0.00440968	39	10.2908	-2.1207e-06
2	0	0	1	0	45.1963	-0.619627	-0.619441	-0.000275075	3	-0.00440887	39	0.09	1.70393e-07
2	0	0	1	0	45.8165	-0.681633	-0.681452	-0.0046382	3	-0.00441055	39	0.7102	3.16071e-06
2	0	0	1	0	46.4365	-0.74364	-0.743447	-0.0109869	3	-0.00441546	39	1.3302	8.16815e-06
2	0	0	1	0	47.0565	-0.805647	-0.805439	-0.0238489	3	-0.00442583	39	1.9502	1.92088e-05
2	0	0	1	0	47.6767	-0.867654	-0.867484	-0.0487156	3	-0.00444839	39	2.5704	4.226e-05
2	0	0	1	0	48.2967	-0.929661	-0.929469	-0.0586391	3	-0.00448329	39	3.1904	5.45032e-05
2	0	0	1	0	48.9167	-0.991668	-0.991484	-0.0665197	3	-0.00452133	39	3.8104	6.59533e-05
2	0	0	1	0	49.5369	-1.05368	-1.05348	-0.0984809	3	-0.00457155	39	4.4306	0.000103748
2	0	0	1	0	50.1569	-1.11568	-1.11547	-0.132806	3	-0.00464377	39	5.0506	0.000148141
2	0	0	1	0	50.7769	-1.17769	-1.17748	-0.203859	3	-0.00474402	39	5.6706	0.000240039
2	0	0	1	0	51.3971	-1.2397	-1.23949	-0.380052	3	-0.00492071	39	6.2908	0.00047107
2	0	0	1	0	52.0171	-1.3017	-1.30149	-0.652111	3	-0.00523264	39	6.9108	0.000848713
2	0	0	1	1	52.6155	-1.33851	-1.3383	-0.907739	4	-0.00573603	39	7.5092	0.00121483
2	0	0	1	1	53.2355	-1.2765	-1.27631	-0.481696	4	-0.006156	39	8.1292	0.000614794
2	0	0	1	1	53.8555	-1.21449	-1.2143	-0.234407	4	-0.00637004	39	8.7492	0.000284641
2	0	0	1	1	54.4757	-1.15249	-1.15229	-0.0938745	4	-0.00646782	39	9.3694	0.000108171
2	0	0	1	1	55.0957	-1.09048	-1.0903	-0.0139179	4	-0.00649832	39	9.9894	1.51747e-05
2	1	0	1	1	55.7157	-1.02847	-1.02829	0.0281707	4	-0.00649285	39	0.44	-2.89676e-05
2	1	0	1	1	56.3359	-0.966465	-0.96627	0.0550124	4	-0.00646646	39	1.0602	-5.31568e-05
2	1	0	1	1	56.9559	-0.904458	-0.904242	0.148697	4	-0.00640812	39	1.6802	-0.000134458
2	1	0	1	1	57.5759	-0.842451	-0.842248	0.264156	4	-0.00627479	39	2.3002	-0.000222485
2	1	0	1	1	58.1961	-0.780444	-0.780223	0.217457	4	-0.00611901	39	2.9204	-0.000169665
2	1	0	1	1	58.8161	-0.718438	-0.718239	0.149854	4	-0.0060065	39	3.5404	-0.000107631
2	1	0	1	1	59.4363	-0.656431	-0.656244	0.112444	4	-0.00592644	39	4.1606	-7.37905e-05
2	1	0	1	1	60.0563	-0.594424	-0.594217	0.0969289	4	-0.00586196	39	4.7806	-5.75968e-05
2	1	0	1	1	60.6763	-0.532417	-0.532213	0.0866846	4	-0.00580476	39	5.4006	-4.61346e-05
2	1	0	1	1	61.2965	-0.47041	-0.470195	0.0773071	4	-0.00575385	39	6.0208	-3.63494e-05
2	1	0	1	1	61.9165	-0.408403	-0.408195	0.0709605	4	-0.00570784	39	6.6408	-2.89657e-05
2	1	0	1	1	62.5365	-0.346396	-0.346192	0.0673166	4	-0.0056649	39	7.2608	-2.33045e-05
2	1	0	1	1	63.1463	-0.314592	-0.314392	0.047425	4	-0.00562626	39	7.8706	-1.491e-05
2	1	0	1	1	63.7663	-0.376599	-0.376401	0.0244535	4	-0.00560546	39	8.4906	-9.20434e-06
2	1	0	1	1	64.3863	-0.438606	-0.438386	0.0139117	4	-0.00559412	39	9.1106	-6.0987e-06
2	1	0	1	1	65.0065	-0.500613	-0.500418	0.00746104	4	-0.00558789	39	9.7308	-3.73364e-06
2	1	0	1	1	65.6265	-0.56262	-0.562424	0.00256462	4	-0.00558506	39	10.3508	-1.4424e-06
2	0	0	1	1	66.2465	-0.624627	-0.624429	-0.00138737	4	-0.00558487	39	0.25	8.66313e-07
2	0	0	1	1	66.8667	-0.686634	-0.686439	-0.00583867	4	-0.00558723	39	0.8702	4.00789e-06
2	0	0	1	1	67.4867	-0.748641	-0.748457	-0.012608	4	-0.00559303	39	1.4902	9.43657e-06
2	0	0	1	1	68.1067	-0.810648	-0.810456	-0.0267789	4	-0.00560484	39	2.1102	2.17031e-05
2	0	0	1	1	68.7269	-0.872655	-0.872472	-0.0518018	4	-0.00562948	39	2.7304	4.51956e-05
2	0	0	1	1	69.3469	-0.934662	-0.934469	-0.058637	4	-0.00566515	39	3.3504	5.47945e-05
2	0	0	1	1	69.9669	-0.996669	-0.996454	-0.0638373	4	-0.00570248	39	3.9704	6.36109e-05
2	0	0	1	1	70.5871	-1.05868	-1.05849	-0.0848784	4	-0.00574831	39	4.5906	8.9843e-05
2	0	0	1	1	71.2071	-1.12068	-1.12049	-0.113395	4	-0.00580955	39	5.2106	0.000127059
2	0	0	1	1	71.8271	-1.18269	-1.1825	-0.196302	4	-0.00590115	39	5.8306	0.000232127
2	0	0	1	1	72.4473	-1.2447	-1.2445	-0.341125	4	-0.00606945	39	6.4508	0.000424531
2	0	0	1	1	73.0673	-1.3067	-1.30651	-0.568148	4	-0.00634252	39	7.0708	0.000742291
2	0	0	0	1	73.5	-1.35006	-1.34982	-0.843608	4	-0.00664368	39	7.5035	0.00113872

File: Fig 2_np-Fe3O4_500mvs.mpt
mode	ox/red	error	control changes	counter inc.	time/s	control/V	Ewe/V	<I>/mA	cycle number	(Q-Qo)/C	I Range	step time/s	P/W
2	1	1	0	0	0.000000000000000E+000	-0.299969	-0.299578	7.61869	1	0.0000000E+000	38	0.000000000000000E+000	-0.0022824
2	0	0	1	0	0.1157	-0.357826	-0.357607	-0.0137723	1	1.20188e-05	38	0.034	4.92508e-06
2	0	0	1	0	0.2357	-0.417833	-0.417608	-0.0294888	1	9.31603e-06	38	0.154	1.23147e-05
2	0	0	1	0	0.3557	-0.47784	-0.477614	-0.0351382	1	5.46202e-06	38	0.274	1.67825e-05
2	0	0	1	0	0.4757	-0.537847	-0.537619	-0.0394708	1	9.48033e-07	38	0.394	2.12203e-05
2	0	0	1	0	0.5957	-0.597853	-0.597628	-0.0458211	1	-4.18206e-06	38	0.514	2.7384e-05
2	0	0	1	0	0.7157	-0.65786	-0.657638	-0.0507059	1	-9.90837e-06	38	0.634	3.33461e-05
2	0	0	1	0	0.8357	-0.717867	-0.717639	-0.0580332	1	-1.63584e-05	38	0.754	4.16469e-05
2	0	0	1	0	0.9557	-0.777874	-0.777646	-0.0700329	1	-2.3937e-05	38	0.874	5.44608e-05
2	0	0	1	0	1.0757	-0.837881	-0.83766	-0.0888289	1	-3.3365e-05	38	0.994	7.44084e-05
2	0	0	1	0	1.1957	-0.897888	-0.897681	-0.119858	1	-4.58534e-05	38	1.114	0.000107594
2	0	0	1	0	1.3157	-0.957895	-0.957677	-0.161931	1	-6.26293e-05	38	1.234	0.000155078
2	0	0	1	0	1.4357	-1.0179	-1.0177	-0.223778	1	-8.53977e-05	38	1.354	0.000227738
2	0	0	1	0	1.5557	-1.07791	-1.0777	-0.301786	1	-0.000116961	38	1.474	0.000325234
2	0	0	1	0	1.6757	-1.13792	-1.13767	-0.406343	1	-0.000158541	38	1.594	0.000462286
2	0	0	1	0	1.7961	-1.19802	-1.1978	-3.16362	1	-0.000285264	38	1.7144	0.00378938
2	0	0	1	0	1.9161	-1.25803	-1.25781	-9.77021	1	-0.0011146	38	1.8344	0.012289
2	0	0	1	0	2.0361	-1.31804	-1.3178	-10.6654	1	-0.00233368	38	1.9544	0.0140549
2	0	0	1	1	2.1495	-1.32524	-1.32502	-10.1119	2	-0.00372356	38	2.0678	0.0133985
2	0	0	1	1	2.2695	-1.26523	-1.26501	-3.36502	2	-0.00448966	38	2.1878	0.00425678
2	0	0	1	1	2.3895	-1.20522	-1.20503	-0.909778	2	-0.00471251	38	2.3078	0.00109631
2	0	0	1	1	2.5099	-1.14512	-1.14491	-0.219573	2	-0.00477385	38	2.4282	0.00025139
2	1	0	1	1	2.6299	-1.08511	-1.08491	0.0908056	2	-0.00477964	38	0.04	-9.85163e-05
2	1	0	1	1	2.7499	-1.0251	-1.0249	0.395258	2	-0.00475262	38	0.16	-0.000405102
2	1	0	1	1	2.8699	-0.965095	-0.96491	0.685842	2	-0.0046808	38	0.28	-0.000661775
2	1	0	1	1	2.9899	-0.905089	-0.904893	0.668894	2	-0.00460212	38	0.4	-0.000605277
2	1	0	1	1	3.1099	-0.845082	-0.844877	0.722924	2	-0.00451746	38	0.52	-0.000610782
2	1	0	1	1	3.2299	-0.785075	-0.784849	0.658232	2	-0.00443431	38	0.64	-0.000516613
2	1	0	1	1	3.3499	-0.725068	-0.724845	0.600336	2	-0.00435914	38	0.76	-0.000435151
2	1	0	1	1	3.4699	-0.665061	-0.664854	0.569158	2	-0.00428925	38	0.88	-0.000378407
2	1	0	1	1	3.5899	-0.605054	-0.604832	0.56816	2	-0.00422148	38	1	-0.000343641
2	1	0	1	1	3.7099	-0.545047	-0.54484	0.601483	2	-0.00415151	38	1.12	-0.000327712
2	1	0	1	1	3.8299	-0.485041	-0.484831	0.615415	2	-0.00407797	38	1.24	-0.000298372
2	1	0	1	1	3.9499	-0.425034	-0.424823	0.569732	2	-0.00400645	38	1.36	-0.000242035
2	1	0	1	1	4.0699	-0.365027	-0.364802	0.480828	2	-0.0039431	38	1.48	-0.000175407
2	1	0	1	1	4.1899	-0.30502	-0.304828	0.418514	2	-0.00388949	38	1.6	-0.000127575
2	1	0	1	1	4.3037	-0.351625	-0.351419	0.151271	2	-0.00385981	38	1.7138	-5.31597e-05
2	1	0	1	1	4.4237	-0.411632	-0.411413	0.0566967	2	-0.00384806	38	1.8338	-2.33257e-05
2	1	0	1	1	4.5437	-0.471639	-0.471431	0.0143261	2	-0.00384418	38	1.9538	-6.75376e-06
2	0	0	1	1	4.6637	-0.531646	-0.531439	-0.00880255	2	-0.00384398	38	0.05	4.67802e-06
2	0	0	1	1	4.7837	-0.591653	-0.591416	-0.023096	2	-0.00384589	38	0.17	1.36593e-05
2	0	0	1	1	4.9037	-0.65166	-0.65144	-0.0359877	2	-0.0038493	38	0.29	2.34439e-05
2	0	0	1	1	5.0237	-0.711666	-0.711443	-0.0500475	2	-0.00385433	38	0.41	3.5606e-05
2	0	0	1	1	5.1437	-0.771673	-0.771431	-0.0800999	2	-0.00386193	38	0.53	6.17916e-05
2	0	0	1	1	5.2637	-0.83168	-0.831456	-0.157854	2	-0.00387559	38	0.65	0.000131248
2	0	0	1	1	5.3837	-0.891687	-0.891477	-0.25846	2	-0.0039013	38	0.77	0.000230411
2	0	0	1	1	5.5037	-0.951694	-0.951477	-0.274346	2	-0.00393368	38	0.89	0.000261034
2	0	0	1	1	5.6237	-1.0117	-1.01148	-0.350847	2	-0.00396953	38	1.01	0.000354876
2	0	0	1	1	5.7437	-1.07171	-1.0715	-0.700325	2	-0.00402915	38	1.13	0.000750396
2	0	0	1	1	5.8637	-1.13171	-1.1315	-2.00876	2	-0.0041722	38	1.25	0.00227291
2	0	0	1	1	5.9841	-1.19182	-1.19159	-1.48288	2	-0.0043808	38	1.3704	0.00176699
2	0	0	1	1	6.1041	-1.25183	-1.25158	-1.84291	2	-0.00457634	38	1.4904	0.00230656
2	0	0	1	1	6.2241	-1.31184	-1.3116	-5.02912	2	-0.00494072	38	1.6104	0.00659618
2	0	0	1	0	6.3379	-1.33124	-1.33101	-6.43106	3	-0.00573189	38	1.7242	0.00855979
2	0	0	1	0	6.4579	-1.27123	-1.27099	-2.10571	3	-0.0062056	38	1.8442	0.00267634
2	0	0	1	0	6.5779	-1.21122	-1.211	-0.686435	3	-0.00635537	38	1.9642	0.000831272
2	0	0	1	0	6.6983	-1.15112	-1.15091	-0.200331	3	-0.00640503	38	2.0846	0.000230562
2	1	0	1	0	6.8183	-1.09111	-1.0909	0.0760661	3	-0.00641122	38	0.038	-8.29803e-05
2	1	0	1	0	6.9383	-1.0311	-1.0309	0.330608	3	-0.00638807	38	0.158	-0.000340824
2	1	0	1	0	7.0583	-0.971096	-0.970896	0.669382	3	-0.00632449	38	0.278	-0.0006499
2	1	0	1	0	7.1783	-0.911089	-0.910881	0.702726	3	-0.00624388	38	0.398	-0.0006401
2	1	0	1	0	7.2983	-0.851082	-0.850877	0.817456	3	-0.00615188	38	0.518	-0.000695554
2	1	0	1	0	7.4183	-0.791075	-0.790845	0.765082	3	-0.00605545	38	0.638	-0.000605061
2	1	0	1	0	7.5383	-0.731069	-0.730826	0.672993	3	-0.00596941	38	0.758	-0.00049184
2	1	0	1	0	7.6583	-0.671062	-0.670834	0.614842	3	-0.00589247	38	0.878	-0.000412457
2	1	0	1	0	7.7783	-0.611055	-0.610813	0.585278	3	-0.00582086	38	0.998	-0.000357495
2	1	0	1	0	7.8983	-0.551048	-0.550798	0.580351	3	-0.00575107	38	1.118	-0.000319656
2	1	0	1	0	8.0183	-0.491041	-0.490822	0.567289	3	-0.00568188	38	1.238	-0.000278438
2	1	0	1	0	8.1383	-0.431034	-0.430798	0.513683	3	-0.00561652	38	1.358	-0.000221294
2	1	0	1	0	8.2583	-0.371028	-0.370789	0.449862	3	-0.00555884	38	1.478	-0.000166804
2	1	0	1	0	8.3783	-0.311021	-0.310793	0.404327	3	-0.00550765	38	1.598	-0.000125662
2	1	0	1	0	8.4921	-0.345625	-0.34539	0.198675	3	-0.00547407	38	1.7118	-6.86205e-05
2	1	0	1	0	8.6121	-0.405631	-0.405401	0.106373	3	-0.00545646	38	1.8318	-4.31238e-05
2	1	0	1	0	8.7321	-0.465638	-0.46541	0.0549976	3	-0.00544705	38	1.9518	-2.55964e-05
2	1	0	1	0	8.8521	-0.525645	-0.525416	0.0241807	3	-0.00544241	38	2.0718	-1.27049e-05
2	1	0	1	0	8.9721	-0.585652	-0.585434	0.00202904	3	-0.00544084	38	2.1918	-1.18787e-06
2	0	0	1	0	9.0921	-0.645659	-0.645435	-0.0124556	3	-0.00544151	38	0.092	8.03925e-06
2	0	0	1	0	9.2121	-0.705666	-0.705434	-0.030487	3	-0.00544415	38	0.212	2.15065e-05
2	0	0	1	0	9.3321	-0.765673	-0.765424	-0.061941	3	-0.00544947	38	0.332	4.74111e-05
2	0	0	1	0	9.4521	-0.825679	-0.82547	-0.150399	3	-0.00546138	38	0.452	0.00012415
2	0	0	1	0	9.5721	-0.885686	-0.885485	-0.278488	3	-0.00548747	38	0.572	0.000246597
2	0	0	1	0	9.6921	-0.945693	-0.945491	-0.297093	3	-0.00552279	38	0.692	0.000280899
2	0	0	1	0	9.8121	-1.0057	-1.00548	-0.32122	3	-0.00555893	38	0.812	0.00032298
2	0	0	1	0	9.9321	-1.06571	-1.06549	-0.488982	3	-0.00560596	38	0.932	0.000521006
2	0	0	1	0	10.0521	-1.12571	-1.12549	-1.01555	3	-0.00568709	38	1.052	0.00114298
2	0	0	1	0	10.1725	-1.18582	-1.18559	-1.84807	3	-0.00586591	38	1.1724	0.00219105
2	0	0	1	0	10.2925	-1.24583	-1.24559	-1.82658	3	-0.0060979	38	1.2924	0.00227517
2	0	0	1	0	10.4125	-1.30583	-1.30559	-2.89406	3	-0.00635475	38	1.4124	0.00377847
2	0	0	1	1	10.5263	-1.33724	-1.337	-4.68599	4	-0.00684918	38	1.5262	0.00626518
2	0	0	1	1	10.6463	-1.27723	-1.27701	-1.64458	4	-0.00720299	38	1.6462	0.00210015
2	0	0	1	1	10.7663	-1.21722	-1.21698	-0.579394	4	-0.00732412	38	1.7662	0.000705112
2	0	0	1	1	10.8867	-1.15712	-1.15688	-0.192663	4	-0.00736764	38	1.8866	0.000222889
2	1	0	1	1	11.0067	-1.09711	-1.09689	0.0432315	4	-0.00737554	38	0.024	-4.74202e-05
2	1	0	1	1	11.1267	-1.0371	-1.0369	0.243382	4	-0.00735881	38	0.144	-0.000252364
2	1	0	1	1	11.2467	-0.977097	-0.976873	0.540741	4	-0.00731096	38	0.264	-0.000528235
2	1	0	1	1	11.3667	-0.91709	-0.916899	0.617624	4	-0.00724237	38	0.384	-0.000566299
2	1	0	1	1	11.4867	-0.857083	-0.856881	0.785769	4	-0.007158	38	0.504	-0.00067331
2	1	0	1	1	11.6067	-0.797076	-0.796856	0.777528	4	-0.00706184	38	0.624	-0.000619578
2	1	0	1	1	11.7267	-0.737069	-0.736859	0.671803	4	-0.00697488	38	0.744	-0.000495024
2	1	0	1	1	11.8467	-0.677062	-0.676853	0.597426	4	-0.00689921	38	0.864	-0.00040437
2	1	0	1	1	11.9667	-0.617056	-0.616833	0.555374	4	-0.0068305	38	0.984	-0.000342573
2	1	0	1	1	12.0867	-0.557049	-0.556837	0.537088	4	-0.00676522	38	1.104	-0.000299071
2	1	0	1	1	12.2067	-0.497042	-0.496801	0.517294	4	-0.00670191	38	1.224	-0.000256992
2	1	0	1	1	12.3267	-0.437035	-0.436814	0.468488	4	-0.00664267	38	1.344	-0.000204642
2	1	0	1	1	12.4467	-0.377028	-0.376823	0.424886	4	-0.00658928	38	1.464	-0.000160107
2	1	0	1	1	12.5667	-0.317021	-0.316806	0.389078	4	-0.00654078	38	1.584	-0.000123262
2	1	0	1	1	12.6805	-0.339624	-0.339416	0.217514	4	-0.00650577	38	1.6978	-7.38276e-05
2	1	0	1	1	12.8005	-0.399631	-0.399398	0.126359	4	-0.0064859	38	1.8178	-5.04674e-05
2	1	0	1	1	12.9205	-0.459638	-0.459401	0.0743883	4	-0.00647427	38	1.9378	-3.4174e-05
2	1	0	1	1	13.0405	-0.519644	-0.519408	0.0415962	4	-0.00646749	38	2.0578	-2.16054e-05
2	1	0	1	1	13.1605	-0.579651	-0.579428	0.0193171	4	-0.00646399	38	2.1778	-1.11929e-05
2	0	0	1	1	13.2805	-0.639658	-0.639435	0.00105207	4	-0.00646285	38	2.2978	-6.72733e-07
2	0	0	1	1	13.4005	-0.699665	-0.699444	-0.0177014	4	-0.00646376	38	0.1	1.23812e-05
2	0	0	1	1	13.5205	-0.759672	-0.759435	-0.0476901	4	-0.00646728	38	0.22	3.62175e-05
2	0	0	1	1	13.6405	-0.819679	-0.819457	-0.128969	4	-0.00647705	38	0.34	0.000105685
2	0	0	1	1	13.7605	-0.879686	-0.879459	-0.264619	4	-0.00650092	38	0.46	0.000232722
2	0	0	1	1	13.8805	-0.939692	-0.939481	-0.292548	4	-0.00653562	38	0.58	0.000274843
2	0	0	1	1	14.0005	-0.999699	-0.999456	-0.296817	4	-0.00657036	38	0.7	0.000296655
2	0	0	1	1	14.1205	-1.05971	-1.05947	-0.396127	4	-0.0066105	38	0.82	0.000419686
2	0	0	1	1	14.2405	-1.11971	-1.11951	-0.678216	4	-0.00667077	38	0.94	0.000759266
2	0	0	1	1	14.3609	-1.17982	-1.17959	-1.51565	4	-0.00680124	38	1.0604	0.00178784
2	0	0	1	1	14.4809	-1.23983	-1.2396	-1.81914	4	-0.00702381	38	1.1804	0.00225501
2	0	0	1	1	14.6009	-1.29983	-1.29961	-2.32383	4	-0.00725133	38	1.3004	0.00302009
2	0	0	1	1	14.7012	-1.34999	-1.34975	-4.54084	4	-0.0075791	38	1.4007	0.00612902