Folder: Magnetite2026/Fig 3 (part 11)

File: Fig 3_RRDE-np-Fe3O4_500mvs_ring.mpt
mode	ox/red	error	control changes	counter inc.	time/s	control/V	Ewe/V	<I>/mA	cycle number	(Q-Qo)/C	I Range	step time/s	P/W
2	1	0	1	0	0.000000000000000E+000	-0.299996	-0.298785	8.67467	1	0.0000000E+000	39	0.000000000000000E+000	-0.00259186
2	1	0	1	0	0.0935	-0.346738	-0.346766	0.0098508	1	1.45142e-05	39	0.0933	-3.41592e-06
2	0	0	1	0	0.1915	-0.395729	-0.395729	-0.00583053	1	1.45176e-05	39	0.046	2.30731e-06
2	0	0	1	0	0.2895	-0.44472	-0.444738	-0.0124636	1	1.35555e-05	39	0.144	5.54305e-06
2	0	0	1	0	0.3875	-0.493712	-0.493719	-0.0177954	1	1.20825e-05	39	0.242	8.78593e-06
2	0	0	1	0	0.4855	-0.542703	-0.542734	-0.021561	1	1.02203e-05	39	0.34	1.17019e-05
2	0	0	1	0	0.5837	-0.591894	-0.591894	-0.0253813	1	7.99535e-06	39	0.4382	1.50231e-05
2	0	0	1	0	0.6817	-0.640886	-0.640911	-0.0286704	1	5.40131e-06	39	0.5362	1.83752e-05
2	0	0	1	0	0.7797	-0.689877	-0.689874	-0.0323767	1	2.40812e-06	39	0.6342	2.23358e-05
2	0	0	1	0	0.8777	-0.738869	-0.738875	-0.0389054	1	-1.14132e-06	39	0.7322	2.87463e-05
2	0	0	1	0	0.9757	-0.78786	-0.787861	-0.0498299	1	-5.54863e-06	39	0.8302	3.92591e-05
2	0	0	1	0	1.0737	-0.836851	-0.836846	-0.0653308	1	-1.11902e-05	39	0.9282	5.46718e-05
2	0	0	1	0	1.1717	-0.885843	-0.88583	-0.0868605	1	-1.85685e-05	39	1.0262	7.69436e-05
2	0	0	1	0	1.2697	-0.934834	-0.934831	-0.115167	1	-2.8329e-05	39	1.1242	0.000107661
2	0	0	1	0	1.3677	-0.983825	-0.983801	-0.146011	1	-4.10243e-05	39	1.2222	0.000143646
2	0	0	1	0	1.4657	-1.03282	-1.0328	-0.171985	1	-5.6631e-05	39	1.3202	0.000177627
2	0	0	1	0	1.5637	-1.08181	-1.08177	-0.198349	1	-7.4731e-05	39	1.4182	0.000214567
2	0	0	1	0	1.6617	-1.1308	-1.13079	-0.271399	1	-9.72048e-05	39	1.5162	0.000306895
2	0	0	1	0	1.7599	-1.17999	-1.17996	-0.476938	1	-0.000131826	39	1.6144	0.000562768
2	0	0	1	0	1.8579	-1.22898	-1.22896	-1.82212	1	-0.000231288	39	1.7124	0.00223932
2	0	0	1	0	1.9559	-1.27797	-1.27798	-3.32735	1	-0.000490714	39	1.8104	0.00425229
2	0	0	1	0	2.0539	-1.32696	-1.32692	-4.02476	1	-0.000854221	39	1.9084	0.00534055
2	0	0	1	1	2.1457	-1.32736	-1.32736	-3.65339	2	-0.00123362	39	2.0002	0.00484938
2	0	0	1	1	2.2437	-1.27837	-1.27836	-1.96461	2	-0.00150476	39	2.0982	0.00251148
2	0	0	1	1	2.3417	-1.22938	-1.22938	-0.924653	2	-0.00164075	39	2.1962	0.00113675
2	0	0	1	1	2.4397	-1.18039	-1.18039	-0.424524	2	-0.00170365	39	2.2942	0.000501104
2	0	0	1	1	2.5379	-1.1312	-1.13118	-0.158032	2	-0.00173102	39	2.3924	0.000178762
2	1	0	1	1	2.6359	-1.08221	-1.0822	0.0114621	2	-0.00173733	39	0.008	-1.24043e-05
2	1	0	1	1	2.7339	-1.03322	-1.03319	0.125798	2	-0.0017304	39	0.106	-0.000129974
2	1	0	1	1	2.8319	-0.984225	-0.984236	0.262622	2	-0.0017112	39	0.204	-0.000258482
2	1	0	1	1	2.9299	-0.935234	-0.935263	0.299421	2	-0.00168419	39	0.302	-0.000280037
2	1	0	1	1	3.0279	-0.886243	-0.886257	0.430984	2	-0.00164914	39	0.4	-0.000381963
2	1	0	1	1	3.1259	-0.837251	-0.837272	0.538707	2	-0.00160059	39	0.498	-0.000451044
2	1	0	1	1	3.2239	-0.78826	-0.788274	0.502931	2	-0.00154889	39	0.596	-0.000396447
2	1	0	1	1	3.3219	-0.739268	-0.739276	0.435564	2	-0.00150281	39	0.694	-0.000322002
2	1	0	1	1	3.4199	-0.690277	-0.690279	0.374548	2	-0.00146315	39	0.792	-0.000258543
2	1	0	1	1	3.5179	-0.641286	-0.64131	0.34155	2	-0.00142826	39	0.89	-0.000219039
2	1	0	1	1	3.6159	-0.592294	-0.592321	0.336348	2	-0.00139522	39	0.988	-0.000199226
2	1	0	1	1	3.7141	-0.543103	-0.543152	0.334663	2	-0.00136225	39	1.0862	-0.000181773
2	1	0	1	1	3.8121	-0.494112	-0.494146	0.312973	2	-0.00133045	39	1.1842	-0.000154655
2	1	0	1	1	3.9101	-0.44512	-0.445149	0.287702	2	-0.00130114	39	1.2822	-0.00012807
2	1	0	1	1	4.0081	-0.396129	-0.396177	0.268536	2	-0.00127396	39	1.3802	-0.000106388
2	1	0	1	1	4.1061	-0.347138	-0.347182	0.25508	2	-0.00124829	39	1.4782	-8.85591e-05
2	1	0	0	1	4.2004	-0.299996	-0.299992	0.246864	2	-0.00122461	39	1.5725	-7.40572e-05
2	1	0	1	1	4.2957	-0.347637	-0.347638	0.114722	2	-0.00120991	39	1.6678	-3.98818e-05
2	1	0	1	1	4.3937	-0.396629	-0.396644	0.0696883	2	-0.00120114	39	1.7658	-2.76415e-05
2	1	0	1	1	4.4917	-0.44562	-0.445642	0.0426803	2	-0.00119575	39	1.8638	-1.90201e-05
2	1	0	1	1	4.5897	-0.494612	-0.494636	0.0236919	2	-0.00119251	39	1.9618	-1.17189e-05
2	1	0	1	1	4.6877	-0.543603	-0.543633	0.0106709	2	-0.00119076	39	2.0598	-5.80106e-06
2	1	0	1	1	4.7859	-0.592794	-0.592799	0.00133485	2	-0.00119013	39	2.158	-7.913e-07
2	0	0	1	1	4.8839	-0.641786	-0.641804	-0.00631223	2	-0.00119037	39	0.068	4.05121e-06
2	0	0	1	1	4.9819	-0.690777	-0.690789	-0.0131243	2	-0.00119135	39	0.166	9.06613e-06
2	0	0	1	1	5.0799	-0.739768	-0.739787	-0.0221338	2	-0.00119314	39	0.264	1.63743e-05
2	0	0	1	1	5.1779	-0.78876	-0.788759	-0.0354135	2	-0.001196	39	0.362	2.79328e-05
2	0	0	1	1	5.2759	-0.837751	-0.837757	-0.0551728	2	-0.00120043	39	0.46	4.62214e-05
2	0	0	1	1	5.3739	-0.886742	-0.886756	-0.0767326	2	-0.00120689	39	0.558	6.80431e-05
2	0	0	1	1	5.4719	-0.935734	-0.935731	-0.0945261	2	-0.00121519	39	0.656	8.8451e-05
2	0	0	1	1	5.5699	-0.984725	-0.984718	-0.126917	2	-0.00122566	39	0.754	0.000124978
2	0	0	1	1	5.6679	-1.03372	-1.03371	-0.216105	2	-0.0012419	39	0.852	0.00022339
2	0	0	1	1	5.7659	-1.08271	-1.08269	-0.377983	2	-0.00127047	39	0.95	0.000409238
2	0	0	1	1	5.8639	-1.1317	-1.1317	-0.396361	2	-0.00130656	39	1.048	0.00044856
2	0	0	1	1	5.9621	-1.18089	-1.18087	-0.622914	2	-0.00135555	39	1.1462	0.00073558
2	0	0	1	1	6.0601	-1.22988	-1.22989	-0.835078	2	-0.00142737	39	1.2442	0.00102705
2	0	0	1	1	6.1581	-1.27887	-1.27884	-1.17431	2	-0.00152342	39	1.3422	0.00150176
2	0	0	1	1	6.2561	-1.32786	-1.32787	-2.4239	2	-0.00168902	39	1.4402	0.00321863
2	0	0	1	0	6.3481	-1.32637	-1.32637	-2.48301	3	-0.00195132	39	1.5322	0.00329338
2	0	0	1	0	6.4461	-1.27737	-1.27736	-1.13649	3	-0.00212377	39	1.6302	0.0014517
2	0	0	1	0	6.5441	-1.22838	-1.22839	-0.471276	3	-0.00219748	39	1.7282	0.00057891
2	0	0	1	0	6.6421	-1.17939	-1.17938	-0.202365	3	-0.00222876	39	1.8262	0.000238666
2	0	0	1	0	6.7403	-1.1302	-1.1302	-0.0622044	3	-0.00224116	39	1.9244	7.03035e-05
2	1	0	1	0	6.8383	-1.08121	-1.08122	0.0401564	3	-0.00224188	39	0.042	-4.34178e-05
2	1	0	1	0	6.9363	-1.03222	-1.03225	0.148514	3	-0.00223297	39	0.14	-0.000153304
2	1	0	1	0	7.0343	-0.983225	-0.983239	0.32394	3	-0.00220944	39	0.238	-0.00031851
2	1	0	1	0	7.1323	-0.934234	-0.93427	0.351594	3	-0.00217713	39	0.336	-0.000328484
2	1	0	1	0	7.2303	-0.885243	-0.885252	0.493121	3	-0.00213651	39	0.434	-0.000436537
2	1	0	1	0	7.3283	-0.836251	-0.836285	0.601187	3	-0.0020816	39	0.532	-0.000502763
2	1	0	1	0	7.4263	-0.78726	-0.787293	0.559136	3	-0.00202405	39	0.63	-0.000440203
2	1	0	1	0	7.5243	-0.738269	-0.738312	0.491206	3	-0.00197253	39	0.728	-0.000362663
2	1	0	1	0	7.6223	-0.689277	-0.689284	0.427813	3	-0.00192751	39	0.826	-0.000294885
2	1	0	1	0	7.7203	-0.640286	-0.640293	0.387832	3	-0.00188769	39	0.924	-0.000248326
2	1	0	1	0	7.8183	-0.591294	-0.591308	0.373458	3	-0.0018505	39	1.022	-0.000220828
2	1	0	1	0	7.9165	-0.542103	-0.542121	0.364832	3	-0.00181419	39	1.1202	-0.000197783
2	1	0	1	0	8.0145	-0.493112	-0.493126	0.340139	3	-0.0017796	39	1.2182	-0.000167731
2	1	0	1	0	8.1125	-0.44412	-0.444162	0.309412	3	-0.00174788	39	1.3162	-0.000137429
2	1	0	1	0	8.2105	-0.395129	-0.395166	0.284129	3	-0.00171887	39	1.4142	-0.000112278
2	1	0	1	0	8.3085	-0.346138	-0.346188	0.268879	3	-0.00169178	39	1.5122	-9.30827e-05
2	1	0	0	0	8.401	-0.300096	-0.300133	0.253657	3	-0.00166734	39	1.6047	-7.61308e-05
2	1	0	1	0	8.4981	-0.348637	-0.348664	0.134239	3	-0.00165075	39	1.7018	-4.68044e-05
2	1	0	1	0	8.5961	-0.397629	-0.397641	0.0914228	3	-0.00163995	39	1.7998	-3.63535e-05
2	1	0	1	0	8.6941	-0.44662	-0.446658	0.0631321	3	-0.0016325	39	1.8978	-2.81985e-05
2	1	0	1	0	8.7921	-0.495611	-0.495635	0.043063	3	-0.00162731	39	1.9958	-2.13435e-05
2	1	0	1	0	8.8901	-0.544603	-0.544627	0.0284751	3	-0.00162378	39	2.0938	-1.55083e-05
2	1	0	1	0	8.9883	-0.593794	-0.593812	0.0163572	3	-0.00162151	39	2.192	-9.7131e-06
2	1	0	1	0	9.0863	-0.642785	-0.642816	0.00820899	3	-0.00162023	39	2.29	-5.27687e-06
2	1	0	1	0	9.1843	-0.691777	-0.691795	0.000802842	3	-0.00161979	39	2.388	-5.55402e-07
2	0	0	1	0	9.2823	-0.740768	-0.740798	-0.00873578	3	-0.00162023	39	0.094	6.47145e-06
2	0	0	1	0	9.3803	-0.78976	-0.78977	-0.0237829	3	-0.00162188	39	0.192	1.8783e-05
2	0	0	1	0	9.4783	-0.838751	-0.838759	-0.0481994	3	-0.00162539	39	0.29	4.04277e-05
2	0	0	1	0	9.5763	-0.887742	-0.887776	-0.0735436	3	-0.00163137	39	0.388	6.52903e-05
2	0	0	1	0	9.6743	-0.936734	-0.936766	-0.0932077	3	-0.00163945	39	0.486	8.73139e-05
2	0	0	1	0	9.7723	-0.985725	-0.985743	-0.12635	3	-0.00164983	39	0.584	0.000124549
2	0	0	1	0	9.8703	-1.03472	-1.03474	-0.213358	3	-0.00166579	39	0.682	0.00022077
2	0	0	1	0	9.9683	-1.08371	-1.08371	-0.449272	3	-0.00169666	39	0.78	0.00048688
2	0	0	1	0	10.0663	-1.1327	-1.13271	-0.425875	3	-0.00174051	39	0.878	0.000482392
2	0	0	1	0	10.1645	-1.18189	-1.18188	-0.493991	3	-0.00178562	39	0.9762	0.000583838
2	0	0	1	0	10.2625	-1.23088	-1.23089	-0.542807	3	-0.00183596	39	1.0742	0.000668136
2	0	0	1	0	10.3605	-1.27987	-1.27986	-0.773499	3	-0.0018978	39	1.1722	0.00098997
2	0	0	1	0	10.4585	-1.32886	-1.32884	-1.79128	3	-0.0020167	39	1.2702	0.00238033
2	0	0	1	1	10.5505	-1.32537	-1.32533	-1.84022	3	-0.00221734	39	1.3622	0.00243891
2	0	0	1	1	10.6485	-1.27637	-1.27636	-0.764618	3	-0.00234026	39	1.4602	0.000975926
2	0	0	1	1	10.7465	-1.22738	-1.22738	-0.291356	3	-0.00238826	39	1.5582	0.000357604
2	0	0	1	1	10.8445	-1.17839	-1.17839	-0.114398	3	-0.00240694	39	1.6562	0.000134805
2	0	0	1	1	10.9427	-1.1292	-1.12921	-0.018325	3	-0.00241307	39	1.7544	2.06928e-05
2	1	0	1	1	11.0407	-1.08021	-1.0802	0.0557678	3	-0.002411	39	0.076	-6.02404e-05
2	1	0	1	1	11.1387	-1.03122	-1.03127	0.150826	3	-0.00240134	39	0.174	-0.000155543
2	1	0	1	1	11.2367	-0.982226	-0.982246	0.315881	3	-0.00237778	39	0.272	-0.000310273
2	1	0	1	1	11.3347	-0.933234	-0.933266	0.338605	3	-0.0023468	39	0.37	-0.000316009
2	1	0	1	1	11.4327	-0.884243	-0.884273	0.477253	3	-0.00230749	39	0.468	-0.000422022
2	1	0	1	1	11.5307	-0.835252	-0.835273	0.584188	3	-0.0022544	39	0.566	-0.000487956
2	1	0	1	1	11.6287	-0.78626	-0.786283	0.551618	3	-0.00219812	39	0.664	-0.000433728
2	1	0	1	1	11.7267	-0.737269	-0.737292	0.48451	3	-0.00214726	39	0.762	-0.000357225
2	1	0	1	1	11.8247	-0.688277	-0.688306	0.423349	3	-0.00210281	39	0.86	-0.000291394
2	1	0	0	1	11.8764	-0.662432	-0.662457	0.398192	3	-0.00208158	39	0.9117	-0.000263785

File: Fig 3_RRDE_np-Fe2O3_5mvs_ring_1.mpt
mode	ox/red	error	control changes	Ns changes	counter inc.	Ns	time/s	control/V	Ewe/V	<I>/mA	dQ/C	(Q-Qo)/C	I Range	Q charge/discharge/mA.h	half cycle	Energy charge/W.h	Energy discharge/W.h	Capacitance charge/µF	Capacitance discharge/µF	step time/s	Q discharge/mA.h	Q charge/mA.h	Capacity/mA.h	Efficiency/%	cycle number	P/W
2	1	1	0	0	0	0	0.1	-0.300043	-0.299896	-0.0881237	-8.81237e-06	-8.81237e-06	52	-2.44788e-06	0	0.000000000000000E+000	7.3411e-10	0.000000000000000E+000	0.000000000000000E+000	0.1	2.44788e-06	0.000000000000000E+000	2.44788e-06	0.0000000E+000	0.000000000000000E+000	2.6428e-05
2	0	0	0	0	0	0	10.2	-0.300043	-0.300003	-0.00228889	-6.49932e-05	-6.49932e-05	52	-1.80537e-05	0	0.000000000000000E+000	5.41527e-09	0.000000000000000E+000	607638	10.2	1.80537e-05	0.000000000000000E+000	1.80537e-05	0.0000000E+000	0.000000000000000E+000	6.86674e-07
2	0	0	0	0	0	0	20.3	-0.300043	-0.299904	-0.00147256	-8.28693e-05	-8.28693e-05	52	-2.30193e-05	0	0.000000000000000E+000	6.90464e-09	0.000000000000000E+000	1.08618e+07	20.3	2.30193e-05	0.000000000000000E+000	2.30193e-05	0.0000000E+000	0.000000000000000E+000	4.41626e-07
2	0	0	0	0	0	0	30.4	-0.300043	-0.299904	-0.00119824	-9.61538e-05	-9.61538e-05	52	-2.67094e-05	0	0.000000000000000E+000	8.01142e-09	0.000000000000000E+000	1.2554e+07	30.4	2.67094e-05	0.000000000000000E+000	2.67094e-05	0.0000000E+000	0.000000000000000E+000	3.59358e-07
2	0	0	0	0	0	0	40.5	-0.300043	-0.299923	-0.00105628	-0.00010748	-0.00010748	52	-2.98556e-05	0	0.000000000000000E+000	8.95505e-09	0.000000000000000E+000	4.02056e+06	40.5	2.98556e-05	0.000000000000000E+000	2.98556e-05	0.0000000E+000	0.000000000000000E+000	3.16803e-07
2	0	0	0	0	0	0	50.6	-0.300043	-0.299942	-0.000974617	-0.000117673	-0.000117673	52	-3.2687e-05	0	0.000000000000000E+000	9.80426e-09	0.000000000000000E+000	2.56727e+06	50.6	3.2687e-05	0.000000000000000E+000	3.2687e-05	0.0000000E+000	0.000000000000000E+000	2.92329e-07
2	0	0	0	0	0	0	60.7	-0.300043	-0.29993	-0.000901429	-0.000127106	-0.000127106	52	-3.53072e-05	0	0.000000000000000E+000	1.05901e-08	0.000000000000000E+000	3.69901e+06	60.7	3.53072e-05	0.000000000000000E+000	3.53072e-05	0.0000000E+000	0.000000000000000E+000	2.70366e-07
2	0	0	0	0	0	0	70.8	-0.300043	-0.299923	-0.000853719	-0.000135989	-0.000135989	52	-3.77746e-05	0	0.000000000000000E+000	1.13302e-08	0.000000000000000E+000	5.08698e+06	70.8	3.77746e-05	0.000000000000000E+000	3.77746e-05	0.0000000E+000	0.000000000000000E+000	2.5605e-07
2	0	0	0	0	0	0	80.9	-0.300043	-0.299995	-0.000810677	-0.000144391	-0.000144391	52	-4.01086e-05	0	0.000000000000000E+000	1.20302e-08	0.000000000000000E+000	1.45363e+06	80.9	4.01086e-05	0.000000000000000E+000	4.01086e-05	0.0000000E+000	0.000000000000000E+000	2.43199e-07
2	0	0	0	0	0	0	91	-0.300043	-0.299869	-0.000759578	-0.000152314	-0.000152314	52	-4.23093e-05	0	0.000000000000000E+000	1.26902e-08	0.000000000000000E+000	5.69131e+06	91	4.23093e-05	0.000000000000000E+000	4.23093e-05	0.0000000E+000	0.000000000000000E+000	2.27774e-07
2	0	0	0	0	0	0	101.1	-0.300043	-0.299904	-0.000720938	-0.000159776	-0.000159776	52	-4.43823e-05	0	0.000000000000000E+000	1.3312e-08	0.000000000000000E+000	2.09422e+07	101.1	4.43823e-05	0.000000000000000E+000	4.43823e-05	0.0000000E+000	0.000000000000000E+000	2.16212e-07
2	0	0	0	0	0	0	111.2	-0.300043	-0.299904	-0.000653721	-0.00016671	-0.00016671	52	-4.63083e-05	0	0.000000000000000E+000	1.38896e-08	0.000000000000000E+000	2.1766e+07	111.2	4.63083e-05	0.000000000000000E+000	4.63083e-05	0.0000000E+000	0.000000000000000E+000	1.96053e-07
2	0	0	0	0	0	0	121.3	-0.300043	-0.299953	-0.00055691	-0.000172912	-0.000172912	52	-4.8031e-05	0	0.000000000000000E+000	1.44063e-08	0.000000000000000E+000	3.01714e+06	121.3	4.8031e-05	0.000000000000000E+000	4.8031e-05	0.0000000E+000	0.000000000000000E+000	1.67047e-07
2	1	0	0	0	0	0	131.4	-0.300043	-0.299965	0.00101236	-0.000174452	-0.000174452	52	3.78618e-07	2	1.13554e-10	0.000000000000000E+000	27452.3	0.000000000000000E+000	2.8	0.000000000000000E+000	3.78618e-07	3.78618e-07	0.0000000E+000	1	-3.03673e-07
2	1	0	0	0	0	0	141.5	-0.300043	-0.299919	0.00471416	-0.000141412	-0.000141412	52	9.55642e-06	2	2.86623e-09	0.000000000000000E+000	9.01857e+06	0.000000000000000E+000	12.9	0.000000000000000E+000	9.55642e-06	9.55642e-06	0.0000000E+000	1	-1.41387e-06
2	1	0	0	0	0	0	151.6	-0.300043	-0.299854	0.00590665	-8.69092e-05	-8.69092e-05	52	2.4696e-05	2	7.40686e-09	0.000000000000000E+000	1.4545e+06	0.000000000000000E+000	23	0.000000000000000E+000	2.4696e-05	2.4696e-05	0.0000000E+000	1	-1.77113e-06
2	1	0	0	0	0	0	161.7	-0.300043	-0.29993	0.00640986	-2.41372e-05	-2.41372e-05	52	4.21327e-05	2	1.26365e-08	0.000000000000000E+000	9.92097e+06	0.000000000000000E+000	33.1	0.000000000000000E+000	4.21327e-05	4.21327e-05	0.0000000E+000	1	-1.92251e-06
2	1	0	0	0	0	0	171.8	-0.300043	-0.299881	0.000268532	2.40763e-05	2.40763e-05	52	5.55253e-05	2	1.6653e-08	0.000000000000000E+000	5.81216e+06	0.000000000000000E+000	43.2	0.000000000000000E+000	5.55253e-05	5.55253e-05	0.0000000E+000	1	-8.05276e-08
2	1	0	0	0	0	0	181.9	-0.300043	-0.299907	-2.84877e-05	2.3929e-05	2.3929e-05	52	-9.12683e-08	3	1.66681e-08	2.73729e-11	3.27319e+06	10745.5	8.2	9.12683e-08	0.000000000000000E+000	9.12683e-08	0.0000000E+000	1	8.54368e-09
2	1	0	0	0	0	0	192	-0.300043	-0.299915	7.36704e-05	2.40943e-05	2.40943e-05	52	6.24412e-08	10	1.87281e-11	0.000000000000000E+000	2451.3	0.000000000000000E+000	6.2	0.000000000000000E+000	6.24412e-08	6.24412e-08	0.0000000E+000	5	-2.20949e-08
2	1	0	0	0	0	0	202.1	-0.300043	-0.299938	0.000248796	2.56109e-05	2.56109e-05	52	4.83732e-07	10	1.45088e-10	0.000000000000000E+000	15193.1	0.000000000000000E+000	16.3	0.000000000000000E+000	4.83732e-07	4.83732e-07	0.0000000E+000	5	-7.46233e-08
2	1	0	0	0	0	0	212.2	-0.300043	-0.299873	0.000298323	2.87891e-05	2.87891e-05	52	2.53648e-07	12	7.60727e-11	0.000000000000000E+000	23899.8	0.000000000000000E+000	3	0.000000000000000E+000	2.53648e-07	2.53648e-07	0.0000000E+000	6	-8.94591e-08
2	1	0	0	0	0	0	222.3	-0.300043	-0.299885	0.000340078	3.20665e-05	3.20665e-05	52	1.16403e-06	12	3.49113e-10	0.000000000000000E+000	156582	0.000000000000000E+000	13.1	0.000000000000000E+000	1.16403e-06	1.16403e-06	0.0000000E+000	6	-1.01984e-07
2	1	0	0	0	0	0	232.4	-0.300043	-0.299946	0.000402792	3.58372e-05	3.58372e-05	52	2.21145e-06	12	6.63265e-10	0.000000000000000E+000	231686	0.000000000000000E+000	23.2	0.000000000000000E+000	2.21145e-06	2.21145e-06	0.0000000E+000	6	-1.20816e-07
2	1	0	0	0	0	0	242.5	-0.300043	-0.299953	0.000399692	3.99401e-05	3.99401e-05	52	3.35114e-06	12	1.00509e-09	0.000000000000000E+000	287299	0.000000000000000E+000	33.3	0.000000000000000E+000	3.35114e-06	3.35114e-06	0.0000000E+000	6	-1.19889e-07
2	1	0	0	0	0	0	252.6	-0.300043	-0.299938	0.000417977	4.40473e-05	4.40473e-05	52	4.49204e-06	12	1.34728e-09	0.000000000000000E+000	604927	0.000000000000000E+000	43.4	0.000000000000000E+000	4.49204e-06	4.49204e-06	0.0000000E+000	6	-1.25367e-07
2	1	0	0	0	0	0	262.7	-0.300043	-0.299972	0.000420998	4.81715e-05	4.81715e-05	52	5.63766e-06	12	1.6909e-09	0.000000000000000E+000	332198	0.000000000000000E+000	53.5	0.000000000000000E+000	5.63766e-06	5.63766e-06	0.0000000E+000	6	-1.26288e-07
2	1	0	0	0	0	0	272.8	-0.300043	-0.299961	0.00245305	6.04006e-05	6.04006e-05	52	9.03461e-06	12	2.70979e-09	0.000000000000000E+000	655069	0.000000000000000E+000	63.6	0.000000000000000E+000	9.03461e-06	9.03461e-06	0.0000000E+000	6	-7.3582e-07
2	1	0	0	0	0	0	282.9	-0.300043	-0.299934	0.00423795	9.63638e-05	9.63638e-05	52	1.90244e-05	12	5.70607e-09	0.000000000000000E+000	2.98839e+06	0.000000000000000E+000	73.7	0.000000000000000E+000	1.90244e-05	1.90244e-05	0.0000000E+000	6	-1.27111e-06
2	1	0	0	0	0	0	293	-0.300043	-0.29995	0.00427978	0.000140198	0.000140198	52	3.12006e-05	12	9.35791e-09	0.000000000000000E+000	2.93986e+06	0.000000000000000E+000	83.8	0.000000000000000E+000	3.12006e-05	3.12006e-05	0.0000000E+000	6	-1.28372e-06
2	1	0	0	0	0	0	303.1	-0.300043	-0.299915	0.00267642	0.000179802	0.000179802	52	4.22017e-05	12	1.26574e-08	0.000000000000000E+000	3.98265e+07	0.000000000000000E+000	93.9	0.000000000000000E+000	4.22017e-05	4.22017e-05	0.0000000E+000	6	-8.02698e-07
2	1	0	0	0	0	0	313.2	-0.300043	-0.299865	0.000833086	0.000194906	0.000194906	52	4.63972e-05	12	1.39156e-08	0.000000000000000E+000	3.64171e+06	0.000000000000000E+000	104	0.000000000000000E+000	4.63972e-05	4.63972e-05	0.0000000E+000	6	-2.49814e-07
2	1	0	0	0	0	0	323.3	-0.300043	-0.299938	0.00028712	0.000200056	0.000200056	52	4.78278e-05	12	1.43447e-08	0.000000000000000E+000	6.44081e+06	0.000000000000000E+000	114.1	0.000000000000000E+000	4.78278e-05	4.78278e-05	0.0000000E+000	6	-8.61182e-08
2	0	0	0	0	0	0	333.4	-0.300043	-0.299976	9.57288e-05	0.000201749	0.000201749	52	4.82981e-05	12	1.44857e-08	0.000000000000000E+000	2.67747e+06	0.000000000000000E+000	124.2	0.000000000000000E+000	4.82981e-05	4.82981e-05	0.0000000E+000	6	-2.87164e-08
2	0	0	0	0	0	0	343.5	-0.300043	-0.299877	-2.03276e-05	0.00020212	0.00020212	52	-5.36882e-09	13	1.45182e-08	1.61001e-12	4.53279e+07	1688.89	1.7	5.36882e-09	0.000000000000000E+000	5.36882e-09	0.0000000E+000	6	6.09577e-09
2	0	0	0	0	0	0	353.6	-0.300043	-0.299934	-0.000133273	0.000201311	0.000201311	52	-2.29926e-07	13	1.45182e-08	6.89581e-11	4.53279e+07	12039.1	11.8	2.29926e-07	0.000000000000000E+000	2.29926e-07	0.0000000E+000	6	3.99731e-08
2	0	0	0	0	0	0	363.7	-0.300043	-0.299908	-0.000232917	0.00019942	0.00019942	52	-7.55273e-07	13	1.45182e-08	2.26508e-10	4.53279e+07	64704.9	21.9	7.55273e-07	0.000000000000000E+000	7.55273e-07	0.0000000E+000	6	6.98537e-08
2	0	0	0	0	0	0	373.8	-0.300043	-0.299938	-0.00034957	0.00019648	0.00019648	52	-1.57206e-06	13	1.45182e-08	4.71461e-10	4.53279e+07	77987	32	1.57206e-06	0.000000000000000E+000	1.57206e-06	0.0000000E+000	6	1.04849e-07
2	0	0	0	0	0	0	383.9	-0.300043	-0.299953	-0.000466848	0.000192414	0.000192414	52	-2.70145e-06	13	1.45182e-08	8.1019e-10	4.53279e+07	110694	42.1	2.70145e-06	0.000000000000000E+000	2.70145e-06	0.0000000E+000	6	1.40033e-07
2	0	0	0	0	0	0	394	-0.300043	-0.299888	-0.000582128	0.000187109	0.000187109	52	-4.17499e-06	13	1.45182e-08	1.25212e-09	4.53279e+07	656670	52.2	4.17499e-06	0.000000000000000E+000	4.17499e-06	0.0000000E+000	6	1.74573e-07
2	0	0	0	0	0	0	404.1	-0.300043	-0.299877	-0.000707054	0.000180583	0.000180583	52	-5.98778e-06	13	1.45182e-08	1.79577e-09	4.53279e+07	1.88359e+06	62.3	5.98778e-06	0.000000000000000E+000	5.98778e-06	0.0000000E+000	6	2.12029e-07
2	0	0	0	0	0	0	410.959	-0.300043	-0.299927	-0.000790372	0.000175514	0.000175514	52	-7.39586e-06	13	1.45182e-08	2.21804e-09	4.53279e+07	435588	69.1592	7.39586e-06	0.000000000000000E+000	7.39586e-06	15.2787	6	2.37054e-07