Folder: Magnetite2026/Fig 2 (part 2)

File: Fig 2_np-Fe2O3_100 mvs.mpt
mode	ox/red	error	control changes	counter inc.	time/s	control/V	Ewe/V	<I>/mA	cycle number	(Q-Qo)/C	I Range	step time/s	P/W
2	1	0	0	0	0.000000000000000E+000	-0.299952	-0.300139	0.82517	1	0.0000000E+000	39	0.000000000000000E+000	-0.000247666
2	1	0	1	0	0.4865	-0.348694	-0.348954	0.00119387	1	4.1814e-06	39	0.01	-4.16604e-07
2	1	0	1	0	0.9965	-0.399685	-0.39992	0.00018158	1	3.90919e-06	39	0.52	-7.26174e-08
2	0	0	1	0	1.5063	-0.450677	-0.450924	-0.000412195	1	3.28081e-06	39	1.0298	1.85869e-07
2	1	0	1	0	2.0163	-0.501668	-0.501944	-0.000470739	1	2.39417e-06	39	1.5398	2.36285e-07
2	0	0	1	0	2.5261	-0.55266	-0.552939	-0.00196611	1	1.19214e-06	39	2.0496	1.08714e-06
2	0	0	1	0	3.0361	-0.603651	-0.603905	-0.00209045	1	-3.90508e-07	39	2.5596	1.26243e-06
2	0	0	1	0	3.5461	-0.654642	-0.654894	-0.00344156	1	-2.42572e-06	39	3.0696	2.25386e-06
2	0	0	1	0	4.0559	-0.705634	-0.705885	-0.00460778	1	-5.0482e-06	39	3.5794	3.25256e-06
2	0	0	1	0	4.5659	-0.756625	-0.756919	-0.00619949	1	-8.53987e-06	39	4.0894	4.69251e-06
2	0	0	1	0	5.0757	-0.807617	-0.807867	-0.00906577	1	-1.31765e-05	39	4.5992	7.32393e-06
2	0	0	1	0	5.5857	-0.858608	-0.858895	-0.0110309	1	-1.91821e-05	39	5.1092	9.47435e-06
2	0	0	1	0	6.0955	-0.909599	-0.909851	-0.015424	1	-2.67631e-05	39	5.619	1.40335e-05
2	0	0	1	0	6.6055	-0.960591	-0.960849	-0.0192731	1	-3.62941e-05	39	6.129	1.85185e-05
2	0	0	1	0	7.1155	-1.01159	-1.01184	-0.0377937	1	-5.03545e-05	39	6.639	3.82412e-05
2	0	0	1	0	7.6253	-1.06257	-1.06282	-0.104163	1	-8.62037e-05	39	7.1488	0.000110706
2	0	0	1	0	8.1353	-1.11357	-1.11383	-0.150282	1	-0.00015396	39	7.6588	0.000167388
2	0	0	1	0	8.6451	-1.16456	-1.1648	-0.830629	1	-0.000359524	39	8.1686	0.000967514
2	0	0	1	0	9.1551	-1.21555	-1.21582	-0.945319	1	-0.00083524	39	8.6786	0.00114933
2	0	0	1	0	9.6649	-1.26654	-1.2668	-1.17797	1	-0.00135426	39	9.1884	0.00149225
2	0	0	1	0	10.1749	-1.31753	-1.31781	-3.58053	1	-0.00236593	39	9.6984	0.00471844
2	0	0	1	1	10.6753	-1.33243	-1.33269	-4.86048	2	-0.00504299	39	10.1988	0.00647751
2	0	0	1	1	11.1853	-1.28144	-1.28169	-1.38326	2	-0.00649698	39	10.7088	0.00177291
2	0	0	1	1	11.6951	-1.23045	-1.23072	-0.419813	2	-0.00689274	39	11.2186	0.000516672
2	0	0	1	1	12.2051	-1.17945	-1.17969	-0.201312	2	-0.00703917	39	11.7286	0.000237485
2	0	0	1	1	12.7149	-1.12846	-1.12874	-0.0960437	2	-0.00711156	39	12.2384	0.000108409
2	0	0	1	1	13.2249	-1.07747	-1.07772	-0.0242119	2	-0.00713867	39	12.7484	2.60936e-05
2	1	0	1	1	13.7349	-1.02648	-1.02673	0.0702147	2	-0.00712986	39	0.33	-7.20914e-05
2	1	0	1	1	14.2447	-0.975488	-0.975749	0.134778	2	-0.00706032	39	0.8398	-0.000131509
2	1	0	1	1	14.7547	-0.924497	-0.924764	0.177783	2	-0.00698568	39	1.3498	-0.000164408
2	1	0	1	1	15.2645	-0.873506	-0.873762	0.282014	2	-0.00686275	39	1.8596	-0.000246413
2	1	0	1	1	15.7745	-0.822514	-0.822771	0.230935	2	-0.00672871	39	2.3696	-0.000190007
2	1	0	1	1	16.2843	-0.771523	-0.77181	0.182643	2	-0.00662261	39	2.8794	-0.000140966
2	1	0	1	1	16.7943	-0.720531	-0.720803	0.151469	2	-0.00653699	39	3.3894	-0.000109179
2	1	0	1	1	17.3043	-0.66954	-0.669812	0.137309	2	-0.00646304	39	3.8994	-9.19715e-05
2	1	0	1	1	17.8141	-0.618549	-0.618809	0.132367	2	-0.00639391	39	4.4092	-8.19101e-05
2	1	0	1	1	18.3241	-0.567557	-0.56783	0.135094	2	-0.00632484	39	4.9192	-7.67107e-05
2	1	0	1	1	18.8339	-0.516566	-0.51685	0.133543	2	-0.00625522	39	5.429	-6.9022e-05
2	1	0	1	1	19.3439	-0.465574	-0.46583	0.122358	2	-0.00618883	39	5.939	-5.69979e-05
2	1	0	1	1	19.8537	-0.414583	-0.414865	0.108899	2	-0.0061292	39	6.4488	-4.51782e-05
2	1	0	1	1	20.3637	-0.363591	-0.363828	0.0979112	2	-0.00607589	39	6.9588	-3.56229e-05
2	1	0	1	1	20.8737	-0.3126	-0.312859	0.090112	2	-0.00602738	39	7.4688	-2.81924e-05
2	1	0	1	1	21.3651	-0.336496	-0.33675	0.0539041	2	-0.00599167	39	7.9602	-1.81522e-05
2	1	0	1	1	21.8751	-0.387487	-0.387737	0.0341158	2	-0.00597034	39	8.4702	-1.3228e-05
2	1	0	1	1	22.3849	-0.438479	-0.438722	0.0241427	2	-0.00595642	39	8.98	-1.0592e-05
2	1	0	1	1	22.8949	-0.48947	-0.489728	0.0170507	2	-0.00594673	39	9.49	-8.35022e-06
2	1	0	1	1	23.4047	-0.540462	-0.540719	0.0133321	2	-0.00593978	39	9.9998	-7.20893e-06
2	1	0	1	1	23.9147	-0.591453	-0.591699	0.00933108	2	-0.00593481	39	10.5098	-5.52119e-06
2	1	0	1	1	24.4247	-0.642444	-0.642721	0.00645266	2	-0.00593142	39	11.0198	-4.14727e-06
2	1	0	1	1	24.9345	-0.693436	-0.693693	0.00347772	2	-0.00592964	39	11.5296	-2.41247e-06
2	0	0	1	1	25.4445	-0.744427	-0.744688	-0.00370345	2	-0.00593023	39	0.33	2.75791e-06
2	0	0	1	1	25.9543	-0.795419	-0.795677	-0.0178324	2	-0.00593609	39	0.8398	1.41888e-05
2	0	0	1	1	26.4643	-0.84641	-0.846637	-0.040061	2	-0.00595194	39	1.3498	3.39171e-05
2	0	0	1	1	26.9741	-0.897402	-0.897638	-0.0488886	2	-0.00597619	39	1.8596	4.38843e-05
2	0	0	1	1	27.4841	-0.948393	-0.94861	-0.0563637	2	-0.00600403	39	2.3696	5.34672e-05
2	0	0	1	1	27.9941	-0.999384	-0.999639	-0.082487	2	-0.00603932	39	2.8796	8.24573e-05
2	0	0	1	1	28.5039	-1.05038	-1.05065	-0.187145	2	-0.00610314	39	3.3894	0.000196623
2	0	0	1	1	29.0139	-1.10137	-1.10161	-0.619019	2	-0.00632416	39	3.8994	0.000681917
2	0	0	1	1	29.5237	-1.15236	-1.15262	-0.371179	2	-0.00658001	39	4.4092	0.000427828
2	0	0	1	1	30.0337	-1.20335	-1.20358	-0.362496	2	-0.00676	39	4.9192	0.000436292
2	0	0	1	1	30.5435	-1.25434	-1.25461	-0.637145	2	-0.00699892	39	5.429	0.000799366
2	0	0	1	1	31.0535	-1.30533	-1.30561	-1.66672	2	-0.00753743	39	5.939	0.00217609
2	0	0	1	0	31.5459	-1.34543	-1.34569	-3.9782	3	-0.00896772	39	6.4314	0.00535343
2	0	0	1	0	32.0559	-1.29443	-1.2947	-1.42245	3	-0.01026	39	6.9414	0.00184165
2	0	0	1	0	32.5657	-1.24344	-1.24373	-0.503017	3	-0.0107006	39	7.4512	0.000625617
2	0	0	1	0	33.0757	-1.19245	-1.19271	-0.227526	3	-0.0108732	39	7.9612	0.000271374
2	0	0	1	0	33.5857	-1.14146	-1.14171	-0.104145	3	-0.0109538	39	8.4712	0.000118903
2	0	0	1	0	34.0955	-1.09047	-1.09072	-0.0298749	3	-0.0109846	39	8.981	3.25851e-05
2	1	0	1	0	34.6055	-1.03948	-1.03974	0.033195	3	-0.0109831	39	0.27	-3.45142e-05
2	1	0	1	0	35.1153	-0.988486	-0.988724	0.12433	3	-0.0109361	39	0.7798	-0.000122928
2	1	0	1	0	35.6253	-0.937495	-0.937733	0.133521	3	-0.0108748	39	1.2898	-0.000125207
2	1	0	1	0	36.1351	-0.886503	-0.886772	0.242443	3	-0.010779	39	1.7996	-0.000214992
2	1	0	1	0	36.6451	-0.835512	-0.835798	0.229958	3	-0.01065	39	2.3096	-0.000192199
2	1	0	1	0	37.1551	-0.784521	-0.784805	0.179946	3	-0.0105448	39	2.8196	-0.000141222
2	1	0	1	0	37.6649	-0.733529	-0.733821	0.143252	3	-0.0104622	39	3.3294	-0.000105121
2	1	0	1	0	38.1749	-0.682538	-0.682848	0.124622	3	-0.0103935	39	3.8394	-8.50979e-05
2	1	0	1	0	38.6847	-0.631546	-0.631842	0.117364	3	-0.0103314	39	4.3492	-7.41552e-05
2	1	0	1	0	39.1947	-0.580555	-0.580836	0.117797	3	-0.0102709	39	4.8592	-6.84209e-05
2	1	0	1	0	39.7045	-0.529563	-0.529839	0.118979	3	-0.0102096	39	5.369	-6.30397e-05
2	1	0	1	0	40.2145	-0.478572	-0.478844	0.109647	3	-0.0101502	39	5.879	-5.25038e-05
2	1	0	1	0	40.7245	-0.427581	-0.427861	0.0985164	3	-0.0100964	39	6.389	-4.21514e-05
2	1	0	1	0	41.2343	-0.376589	-0.376839	0.0895132	3	-0.0100481	39	6.8988	-3.37321e-05
2	1	0	1	0	41.7443	-0.325598	-0.325861	0.0817482	3	-0.0100041	39	7.4088	-2.66385e-05
2	1	0	1	0	42.2357	-0.323498	-0.323738	0.0570461	3	-0.00996801	39	7.9002	-1.8468e-05
2	1	0	1	0	42.7457	-0.37449	-0.374743	0.0355186	3	-0.00994548	39	8.4102	-1.33103e-05
2	1	0	1	0	43.2555	-0.425481	-0.425743	0.0252137	3	-0.00993066	39	8.92	-1.07346e-05
2	1	0	1	0	43.7655	-0.476472	-0.476727	0.0185231	3	-0.00992022	39	9.43	-8.83049e-06
2	1	0	1	0	44.2755	-0.527464	-0.527737	0.013924	3	-0.00991269	39	9.94	-7.34818e-06
2	1	0	1	0	44.7853	-0.578455	-0.578715	0.0104846	3	-0.0099073	39	10.4498	-6.06758e-06
2	1	0	1	0	45.2953	-0.629447	-0.629723	0.00691728	3	-0.00990363	39	10.9598	-4.35597e-06
2	1	0	1	0	45.8051	-0.680438	-0.680687	0.00438786	3	-0.0099016	39	11.4696	-2.98676e-06
2	0	0	1	0	46.3151	-0.731429	-0.731683	-0.0017305	3	-0.0099017	39	0.24	1.26618e-06
2	0	0	1	0	46.8249	-0.782421	-0.782664	-0.013938	3	-0.00990619	39	0.7498	1.09088e-05
2	0	0	1	0	47.3349	-0.833412	-0.833643	-0.0366307	3	-0.00992	39	1.2598	3.05369e-05
2	0	0	1	0	47.8449	-0.884404	-0.884673	-0.0493666	3	-0.00994357	39	1.7698	4.36733e-05
2	0	0	1	0	48.3547	-0.935395	-0.935637	-0.0510726	3	-0.00997024	39	2.2796	4.77855e-05
2	0	0	1	0	48.8647	-0.986387	-0.986645	-0.0649737	3	-0.0100001	39	2.7896	6.41059e-05
2	0	0	1	0	49.3745	-1.03738	-1.03764	-0.115172	3	-0.0100439	39	3.2994	0.000119507
2	0	0	1	0	49.8845	-1.08837	-1.08864	-0.463132	3	-0.0101708	39	3.8094	0.000504184
2	0	0	1	0	50.3943	-1.13936	-1.13962	-0.399124	3	-0.0104078	39	4.3192	0.000454849
2	0	0	1	0	50.9043	-1.19035	-1.19061	-0.325541	3	-0.0105889	39	4.8292	0.000387591
2	0	0	1	0	51.4143	-1.24134	-1.24163	-0.491783	3	-0.0107863	39	5.3392	0.000610614
2	0	0	1	0	51.9241	-1.29234	-1.2926	-1.14831	3	-0.0111754	39	5.849	0.00148431
2	0	0	1	0	52.4341	-1.34333	-1.34361	-2.98849	3	-0.0121561	39	6.359	0.00401538
2	0	0	1	1	52.9265	-1.30743	-1.30771	-1.5333	3	-0.0133794	39	6.8514	0.00200511
2	0	0	1	1	53.4365	-1.25644	-1.2567	-0.565985	3	-0.013872	39	7.3614	0.000711273
2	0	0	1	1	53.9463	-1.20545	-1.2057	-0.245935	3	-0.0140619	39	7.8712	0.000296524
2	0	0	1	1	54.4563	-1.15446	-1.15472	-0.113169	3	-0.0141485	39	8.3812	0.000130679
2	0	0	1	1	54.9661	-1.10347	-1.10373	-0.037829	3	-0.0141839	39	8.891	4.17528e-05
2	1	0	1	1	55.4761	-1.05248	-1.05275	0.0142864	3	-0.0141877	39	0.17	-1.504e-05
2	1	0	1	1	55.9859	-1.00148	-1.00174	0.104008	3	-0.0141583	39	0.6798	-0.000104189
2	1	0	1	1	56.4959	-0.950493	-0.950761	0.100701	3	-0.0141057	39	1.1898	-9.57424e-05
2	1	0	1	1	57.0059	-0.899501	-0.899759	0.193495	3	-0.0140331	39	1.6998	-0.000174099
2	1	0	1	1	57.5157	-0.84851	-0.848774	0.233336	3	-0.0139143	39	2.2096	-0.000198049
2	1	0	1	1	58.0257	-0.797518	-0.797765	0.180936	3	-0.0138074	39	2.7196	-0.000144345
2	1	0	1	1	58.5355	-0.746527	-0.746787	0.13882	3	-0.0137259	39	3.2294	-0.000103669
2	1	0	1	1	59.0455	-0.695536	-0.695775	0.114888	3	-0.013661	39	3.7394	-7.99362e-05
2	1	0	1	1	59.5553	-0.644544	-0.644794	0.103405	3	-0.0136051	39	4.2492	-6.66751e-05
2	1	0	1	1	60.0653	-0.593553	-0.593797	0.10059	3	-0.0135526	39	4.7592	-5.97299e-05
2	1	0	1	1	60.5753	-0.542561	-0.542821	0.101866	3	-0.0135002	39	5.2692	-5.52951e-05
2	1	0	1	1	60.911	-0.508917	-0.509166	0.101338	3	-0.0134658	39	5.6049	-5.15979e-05

File: Fig 2_np-Fe2O3_500 mvs.mpt
mode	ox/red	error	control changes	counter inc.	time/s	control/V	Ewe/V	<I>/mA	cycle number	(Q-Qo)/C	I Range	step time/s	P/W
2	1	1	1	0	0.000000000000000E+000	-0.299954	-0.299008	3.11687	1	0.0000000E+000	39	0.000000000000000E+000	-0.00093197
2	0	0	1	0	0.0955	-0.347696	-0.347679	-0.00294442	1	3.59374e-06	39	0.024	1.02371e-06
2	0	0	1	0	0.1955	-0.397688	-0.397668	-0.00882667	1	2.91946e-06	39	0.124	3.51008e-06
2	0	0	1	0	0.2955	-0.447679	-0.447669	-0.0114281	1	1.84004e-06	39	0.224	5.11599e-06
2	0	0	1	0	0.3955	-0.497671	-0.497638	-0.0145935	1	4.90039e-07	39	0.324	7.26226e-06
2	0	0	1	0	0.4955	-0.547662	-0.547627	-0.0176851	1	-1.1609e-06	39	0.424	9.68481e-06
2	0	0	1	0	0.5955	-0.597753	-0.597732	-0.023007	1	-3.24361e-06	39	0.524	1.3752e-05
2	0	0	1	0	0.6955	-0.647745	-0.647738	-0.0293068	1	-5.92298e-06	39	0.624	1.89831e-05
2	0	0	1	0	0.7955	-0.697736	-0.697725	-0.0367687	1	-9.29383e-06	39	0.724	2.56545e-05
2	0	0	1	0	0.8955	-0.747728	-0.747709	-0.0441237	1	-1.33976e-05	39	0.824	3.29917e-05
2	0	0	1	0	0.9955	-0.797719	-0.797657	-0.0527294	1	-1.83094e-05	39	0.924	4.20599e-05
2	0	0	1	0	1.0955	-0.847711	-0.847642	-0.0628138	1	-2.41553e-05	39	1.024	5.32437e-05
2	0	0	1	0	1.1955	-0.897702	-0.897656	-0.0729162	1	-3.10098e-05	39	1.124	6.54536e-05
2	0	0	1	0	1.2955	-0.947694	-0.94765	-0.0826989	1	-3.88491e-05	39	1.224	7.83697e-05
2	0	0	1	0	1.3955	-0.997685	-0.997637	-0.0943295	1	-4.7763e-05	39	1.324	9.41066e-05
2	0	0	1	0	1.4955	-1.04768	-1.04765	-0.117308	1	-5.82151e-05	39	1.424	0.000122897
2	0	0	1	0	1.5955	-1.09767	-1.09763	-0.193375	1	-7.34078e-05	39	1.524	0.000212255
2	0	0	1	0	1.6955	-1.14766	-1.14763	-0.294579	1	-9.77323e-05	39	1.624	0.000338068
2	0	0	1	0	1.7957	-1.19785	-1.19778	-1.38815	1	-0.000153126	39	1.7242	0.0016627
2	0	0	1	0	1.8957	-1.24784	-1.24781	-6.1945	1	-0.000545695	39	1.8242	0.00772958
2	0	0	1	0	1.9957	-1.29783	-1.29779	-7.87559	1	-0.0012608	39	1.9242	0.0102209
2	0	0	1	0	2.0957	-1.34783	-1.34777	-10.8497	1	-0.00217494	39	2.0242	0.0146229
2	0	0	1	1	2.1897	-1.30533	-1.30531	-6.28561	2	-0.00300336	39	2.1182	0.00820464
2	0	0	1	1	2.2897	-1.25534	-1.2553	-2.70953	2	-0.00342917	39	2.2182	0.00340126
2	0	0	1	1	2.3897	-1.20535	-1.2053	-1.342	2	-0.00362049	39	2.3182	0.00161751
2	0	0	1	1	2.4899	-1.15516	-1.15511	-0.696419	2	-0.00371893	39	2.4184	0.000804442
2	0	0	1	1	2.5899	-1.10517	-1.10512	-0.280904	2	-0.0037666	39	2.5184	0.000310434
2	1	0	1	1	2.6899	-1.05518	-1.05515	0.0401048	2	-0.00377784	39	0.012	-4.23165e-05
2	1	0	1	1	2.7899	-1.00518	-1.00513	0.44387	2	-0.00375454	39	0.112	-0.000446147
2	1	0	1	1	2.8899	-0.955193	-0.955148	0.692563	2	-0.0036923	39	0.212	-0.000661501
2	1	0	1	1	2.9899	-0.905201	-0.905151	0.601457	2	-0.00362876	39	0.312	-0.000544409
2	1	0	1	1	3.0899	-0.85521	-0.855177	0.617488	2	-0.00356725	39	0.412	-0.000528061
2	1	0	1	1	3.1899	-0.805218	-0.805199	0.547555	2	-0.00350846	39	0.512	-0.000440891
2	1	0	1	1	3.2899	-0.755227	-0.755223	0.497769	2	-0.00345647	39	0.612	-0.000375927
2	1	0	1	1	3.3899	-0.705235	-0.705206	0.474983	2	-0.00340769	39	0.712	-0.000334961
2	1	0	1	1	3.4899	-0.655244	-0.655236	0.465663	2	-0.00336072	39	0.812	-0.00030512
2	1	0	1	1	3.5899	-0.605252	-0.605232	0.476825	2	-0.00331358	39	0.912	-0.00028859
2	1	0	1	1	3.6899	-0.555161	-0.55513	0.504945	2	-0.00326447	39	1.012	-0.00028031
2	1	0	1	1	3.7899	-0.505169	-0.505151	0.536939	2	-0.0032122	39	1.112	-0.000271235
2	1	0	1	1	3.8899	-0.455178	-0.455161	0.542744	2	-0.00315774	39	1.212	-0.000247036
2	1	0	1	1	3.9899	-0.405186	-0.405174	0.500586	2	-0.00310512	39	1.312	-0.000202824
2	1	0	1	1	4.0899	-0.355195	-0.355186	0.438927	2	-0.00305808	39	1.412	-0.000155901
2	1	0	1	1	4.1899	-0.305203	-0.305186	0.388287	2	-0.00301681	39	1.512	-0.0001185
2	1	0	1	1	4.2837	-0.341597	-0.341577	0.158711	2	-0.00299281	39	1.6058	-5.42121e-05
2	1	0	1	1	4.3837	-0.391589	-0.391558	0.0749974	2	-0.00298177	39	1.7058	-2.93658e-05
2	1	0	1	1	4.4837	-0.44158	-0.441549	0.0390186	2	-0.00297627	39	1.8058	-1.72286e-05
2	1	0	1	1	4.5837	-0.491572	-0.491541	0.0197124	2	-0.00297342	39	1.9058	-9.68946e-06
2	1	0	1	1	4.6837	-0.541563	-0.541512	0.00794146	2	-0.00297208	39	2.0058	-4.30039e-06
2	0	0	1	1	4.7837	-0.591554	-0.591539	-0.000846982	2	-0.00297174	39	0.000000000000000E+000	5.01023e-07
2	0	0	1	1	4.8837	-0.641646	-0.641607	-0.00900655	2	-0.00297224	39	0.1	5.77866e-06
2	0	0	1	1	4.9837	-0.691637	-0.691597	-0.0207371	2	-0.00297369	39	0.2	1.43418e-05
2	0	0	1	1	5.0837	-0.741629	-0.741602	-0.0421712	2	-0.0029767	39	0.3	3.12742e-05
2	0	0	1	1	5.1837	-0.79162	-0.791582	-0.0870574	2	-0.00298287	39	0.4	6.89131e-05
2	0	0	1	1	5.2837	-0.841612	-0.841567	-0.164382	2	-0.00299541	39	0.5	0.000138338
2	0	0	1	1	5.3837	-0.891603	-0.891575	-0.216168	2	-0.00301486	39	0.6	0.00019273
2	0	0	1	1	5.4837	-0.941595	-0.941555	-0.258193	2	-0.00303839	39	0.7	0.000243102
2	0	0	1	1	5.5837	-0.991586	-0.991524	-0.307776	2	-0.00306642	39	0.8	0.000305168
2	0	0	1	1	5.6837	-1.04158	-1.04152	-0.5411	2	-0.00310633	39	0.9	0.000563568
2	0	0	1	1	5.7837	-1.09157	-1.09152	-1.18125	2	-0.00318851	39	1	0.00128936
2	0	0	1	1	5.8837	-1.14156	-1.14153	-2.35394	2	-0.00338557	39	1.1	0.00268709
2	0	0	1	1	5.9839	-1.19175	-1.19172	-1.97702	2	-0.0035707	39	1.2002	0.00235605
2	0	0	1	1	6.0839	-1.24174	-1.24169	-2.53817	2	-0.00380417	39	1.3002	0.00315163
2	0	0	1	1	6.1839	-1.29174	-1.29167	-3.64871	2	-0.00409503	39	1.4002	0.00471294
2	0	0	1	1	6.2839	-1.34173	-1.34167	-7.56335	2	-0.00463367	39	1.5002	0.0101475
2	0	0	1	0	6.3781	-1.31133	-1.31127	-4.88637	3	-0.00528679	39	1.5944	0.00640735
2	0	0	1	0	6.4781	-1.26134	-1.26129	-1.87268	3	-0.00560402	39	1.6944	0.00236198
2	0	0	1	0	6.5781	-1.21135	-1.21128	-0.806961	3	-0.00572861	39	1.7944	0.000977458
2	0	0	1	0	6.6783	-1.16116	-1.1611	-0.366492	3	-0.00578522	39	1.8946	0.000425535
2	0	0	1	0	6.7783	-1.11117	-1.11112	-0.0899878	3	-0.00580764	39	1.9946	9.99875e-05
2	1	0	1	0	6.8783	-1.06117	-1.06113	0.134544	3	-0.00580555	39	0.056	-0.000142768
2	1	0	1	0	6.9783	-1.01118	-1.01114	0.48415	3	-0.00577735	39	0.156	-0.000489544
2	1	0	1	0	7.0783	-0.961191	-0.961167	0.817937	3	-0.00570857	39	0.256	-0.000786174
2	1	0	1	0	7.1783	-0.9112	-0.911148	0.733651	3	-0.00563245	39	0.356	-0.000668465
2	1	0	1	0	7.2783	-0.861209	-0.861148	0.767214	3	-0.00555743	39	0.456	-0.000660685
2	1	0	1	0	7.3783	-0.811217	-0.811219	0.692679	3	-0.0054839	39	0.556	-0.000561915
2	1	0	1	0	7.4783	-0.761226	-0.7612	0.610148	3	-0.00541928	39	0.656	-0.000464445
2	1	0	1	0	7.5783	-0.711234	-0.711184	0.572868	3	-0.00536059	39	0.756	-0.000407415
2	1	0	1	0	7.6783	-0.661243	-0.661204	0.567206	3	-0.00530396	39	0.856	-0.000375039
2	1	0	1	0	7.7783	-0.611251	-0.611216	0.584391	3	-0.00524668	39	0.956	-0.000357189
2	1	0	1	0	7.8783	-0.56116	-0.561149	0.623223	3	-0.00518647	39	1.056	-0.000349721
2	1	0	1	0	7.9783	-0.511168	-0.511145	0.664511	3	-0.00512208	39	1.156	-0.000339662
2	1	0	1	0	8.0783	-0.461177	-0.461159	0.673197	3	-0.00505483	39	1.256	-0.00031045
2	1	0	1	0	8.1783	-0.411185	-0.411178	0.622875	3	-0.00498962	39	1.356	-0.000256112
2	1	0	1	0	8.2783	-0.361194	-0.361152	0.540853	3	-0.00493146	39	1.456	-0.00019533
2	1	0	1	0	8.3783	-0.311202	-0.311177	0.470331	3	-0.00488116	39	1.556	-0.000146356
2	1	0	1	0	8.4721	-0.335598	-0.335575	0.223197	3	-0.00484861	39	1.6498	-7.48993e-05
2	1	0	1	0	8.5721	-0.38559	-0.385553	0.106349	3	-0.00483305	39	1.7498	-4.10032e-05
2	1	0	1	0	8.6721	-0.435581	-0.435566	0.0536407	3	-0.00482537	39	1.8498	-2.33641e-05
2	1	0	1	0	8.7721	-0.485573	-0.485544	0.0259739	3	-0.00482153	39	1.9498	-1.26115e-05
2	1	0	1	0	8.8721	-0.535564	-0.535532	0.0092627	3	-0.00481986	39	2.0498	-4.96047e-06
2	0	0	1	0	8.9721	-0.585555	-0.585532	-0.00229137	3	-0.00481955	39	0.022	1.34167e-06
2	0	0	1	0	9.0721	-0.635647	-0.635613	-0.0116073	3	-0.00482027	39	0.122	7.37777e-06
2	0	0	1	0	9.1721	-0.685638	-0.685608	-0.0231333	3	-0.00482199	39	0.222	1.58604e-05
2	0	0	1	0	9.2721	-0.73563	-0.735608	-0.0443236	3	-0.00482523	39	0.322	3.26048e-05
2	0	0	1	0	9.3721	-0.785621	-0.785589	-0.0964223	3	-0.00483189	39	0.422	7.57483e-05
2	0	0	1	0	9.4721	-0.835613	-0.835602	-0.19252	3	-0.00484611	39	0.522	0.00016087
2	0	0	1	0	9.5721	-0.885604	-0.885568	-0.259995	3	-0.00486922	39	0.622	0.000230243
2	0	0	1	0	9.6721	-0.935596	-0.935562	-0.285583	3	-0.00489657	39	0.722	0.000267181
2	0	0	1	0	9.7721	-0.985587	-0.985549	-0.346845	3	-0.0049274	39	0.822	0.000341833
2	0	0	1	0	9.8721	-1.03558	-1.03555	-0.584049	3	-0.00497155	39	0.922	0.000604809
2	0	0	1	0	9.9721	-1.08557	-1.08551	-1.16816	3	-0.00505596	39	1.022	0.00126805
2	0	0	1	0	10.0721	-1.13556	-1.1355	-3.0617	3	-0.00524543	39	1.122	0.00347656
2	0	0	1	0	10.1723	-1.18575	-1.18572	-1.70029	3	-0.0054928	39	1.2222	0.00201607
2	0	0	1	0	10.2723	-1.23574	-1.23571	-1.65206	3	-0.00565319	39	1.3222	0.00204147
2	0	0	1	0	10.3723	-1.28574	-1.28568	-2.74995	3	-0.00585855	39	1.4222	0.00353556
2	0	0	1	0	10.4723	-1.33573	-1.33568	-6.03226	3	-0.00627683	39	1.5222	0.00805715
2	0	0	1	1	10.5665	-1.31733	-1.31729	-4.64443	3	-0.00686616	39	1.6164	0.00611806
2	0	0	1	1	10.6665	-1.26734	-1.26729	-1.79253	3	-0.00716852	39	1.7164	0.00227165
2	0	0	1	1	10.7665	-1.21735	-1.2173	-0.742356	3	-0.0072855	39	1.8164	0.000903668
2	0	0	1	1	10.8667	-1.16716	-1.16713	-0.330863	3	-0.00733662	39	1.9166	0.00038616
2	0	0	1	1	10.9667	-1.11716	-1.11711	-0.0813981	3	-0.00735636	39	2.0166	9.09304e-05
2	1	0	1	1	11.0667	-1.06717	-1.06712	0.120658	3	-0.0073538	39	0.06	-0.000128757
2	1	0	1	1	11.1667	-1.01718	-1.01714	0.415185	3	-0.0073287	39	0.16	-0.000422301
2	1	0	1	1	11.2667	-0.96719	-0.967153	0.7836	3	-0.00726613	39	0.26	-0.000757861
2	1	0	1	1	11.3667	-0.917199	-0.917176	0.727311	3	-0.00719041	39	0.36	-0.000667072
2	1	0	1	1	11.4667	-0.867207	-0.867174	0.779561	3	-0.00711486	39	0.46	-0.000676014
2	1	0	1	1	11.5667	-0.817216	-0.817172	0.729102	3	-0.00703812	39	0.56	-0.000595802
2	1	0	1	1	11.6667	-0.767225	-0.767201	0.64082	3	-0.00696964	39	0.66	-0.000491638
2	1	0	1	1	11.7667	-0.717233	-0.717217	0.594974	3	-0.00690804	39	0.76	-0.000426725
2	1	0	1	1	11.8667	-0.667242	-0.667197	0.586634	3	-0.00684907	39	0.86	-0.0003914
2	1	0	1	1	11.9667	-0.61725	-0.617201	0.604136	3	-0.00678962	39	0.96	-0.000372874
2	1	0	1	1	12.0667	-0.567159	-0.567111	0.644744	3	-0.0067272	39	1.06	-0.000365641
2	1	0	1	1	12.119	-0.541013	-0.541009	0.66826	3	-0.00669271	39	1.1123	-0.000361535