Folder: Magnetite2026/Fig 2

Note: README.md
# Magnetite2026
Data and technoeconomic analysis supporting the results and discussion for Shekhar et al. 2026

A Jupyter notebook is available to view and modify the model assumptions used to estimate a simplified levelized cost of Fe. 

Cost estimates for the stack and balance-of-plant (BOP) were derived from published data on chlor-alkali and metal-electrowinning processes.

Konovalova, A.; Goldman, A. C.; Shekhar, R.; Triplett, I.; Moutarlier, L. J.; Kwak, M.; Kempler, P. A. Pathways to Electrochemical Ironmaking at Scale Via the Direct Reduction of Fe2 O3. ACS Energy Lett. 2025, 10 (4), 1851–1857. https://doi.org/10.1021/acsenergylett.5c00166

Hofmann, M.; Müller, R.; Christidis, A.; Fischer, P.; Klaucke, F.; Vomberg, S.; Tsatsaronis, G. Flexible and Economical Operation of Chlor‐alkali Process with Subsequent Polyvinyl Chlo-ride Production. AIChE J. 2022, 68 (1), e17480. https://doi.org/10.1002/aic.17480.

Klaucke, F.; Müller, R.; Hofmann, M.; Weigert, J.; Fischer, P.; Vomberg, S.; Tsatsaronis, G.; Repke, J.-U. Chlor-Alkali Process with Subsequent Polyvinyl Chloride Production─Cost Analysis and Economic Evaluation of Demand Response. Ind. Eng. Chem. Res. 2023, 62 (19), 7336–7351. https://doi.org/10.1021/acs.iecr.2c04188.

A simplified levelized cost of iron, X_Fe, was calculated based on the levelized cost of capital and operating costs and an annual revenue for co-sale of Cl2 (Equation 4, Supporting Information)
X_Fe = ∑_i (C_i) -R_Cl2

Raw data is sorted by figures available in the manuscript.
an-Fe2O3 refers to a low surface area hematite sample
pc-Fe2O3 refers to a high surface area hematite sample
bf-Fe2O3 refers to a blast-furnace grade iron ore concentrate
np-Fe3O4 refers to a synthetic magnetite sample
prec-Fe3O4 refers to a reprecipitated iron ore concentrate which was high surface area.

File: Fig 2_np-Fe2O3_5mvs.mpt
mode	ox/red	error	control changes	counter inc.	time/s	control/V	Ewe/V	<I>/mA	cycle number	(Q-Qo)/C	I Range	step time/s	P/W
2	1	0	1	0	0.000000000000000E+000	-0.300043	-0.300155	0.19903	1	0.0000000E+000	39	0.000000000000000E+000	-5.97399e-05
2	1	0	0	0	1.9548	-0.31959	-0.319716	0.00394845	1	1.69984e-05	39	1.8998	-1.26238e-06
2	1	0	0	0	3.9544	-0.339586	-0.339699	0.00306479	1	2.32163e-05	39	3.8994	-1.04111e-06
2	1	0	0	0	5.954	-0.359583	-0.35969	0.0027912	1	2.8419e-05	39	5.899	-1.00397e-06
2	1	0	1	0	7.9538	-0.37958	-0.379675	0.00259772	1	3.32655e-05	39	7.8988	-9.86291e-07
2	1	0	1	0	9.9534	-0.399576	-0.399652	0.00244169	1	3.78209e-05	39	9.8984	-9.75828e-07
2	1	0	1	0	11.953	-0.419573	-0.419683	0.00237537	1	4.21617e-05	39	11.898	-9.96902e-07
2	1	0	1	0	13.9526	-0.439569	-0.439673	0.00232337	1	4.63829e-05	39	13.8976	-1.02152e-06
2	1	0	0	0	15.9524	-0.459566	-0.45968	0.00227812	1	5.04314e-05	39	15.8974	-1.04721e-06
2	1	0	0	0	17.952	-0.479562	-0.479666	0.00234204	1	5.43364e-05	39	17.897	-1.1234e-06
2	1	0	0	0	19.9516	-0.499559	-0.499659	0.00210139	1	5.81099e-05	39	19.8966	-1.04998e-06
2	1	0	1	0	21.9514	-0.519555	-0.519626	0.00213945	1	6.17797e-05	39	21.8964	-1.11172e-06
2	1	0	1	0	23.951	-0.539552	-0.539617	0.00212487	1	6.53964e-05	39	23.896	-1.14662e-06
2	0	0	1	0	25.9506	-0.559549	-0.559628	0.00190202	1	6.88493e-05	39	25.8956	-1.06443e-06
2	0	0	1	0	27.9502	-0.579545	-0.579635	0.00197663	1	7.21312e-05	39	27.8952	-1.14573e-06
2	1	0	0	0	29.95	-0.599542	-0.599621	0.00190421	1	7.53051e-05	39	29.895	-1.14181e-06
2	1	0	0	0	31.9496	-0.619538	-0.619624	0.00202475	1	7.84821e-05	39	31.8946	-1.25458e-06
2	1	0	0	0	33.9492	-0.639535	-0.639615	0.00182147	1	8.15636e-05	39	33.8942	-1.16504e-06
2	1	0	1	0	35.9489	-0.659532	-0.659635	0.0016802	1	8.44867e-05	39	35.8939	-1.10832e-06
2	0	0	1	0	37.9486	-0.679528	-0.679601	0.00171705	1	8.72682e-05	39	37.8936	-1.16691e-06
2	1	0	1	0	39.9482	-0.699524	-0.699589	0.00167735	1	8.99131e-05	39	39.8932	-1.17345e-06
2	1	0	1	0	41.9478	-0.719521	-0.71958	0.00156944	1	9.23193e-05	39	41.8928	-1.12934e-06
2	1	0	0	0	43.9476	-0.739517	-0.739587	0.0014487	1	9.46047e-05	39	43.8926	-1.07144e-06
2	1	0	0	0	45.9472	-0.759514	-0.759602	0.00142949	1	9.66863e-05	39	45.8922	-1.08584e-06
2	1	0	0	0	47.9468	-0.77951	-0.779603	0.00143047	1	9.86704e-05	39	47.8918	-1.11519e-06
2	1	0	0	0	49.9464	-0.799507	-0.799587	0.0011834	1	0.000100416	39	49.8914	-9.46233e-07
2	1	0	1	0	51.9462	-0.819504	-0.819564	0.00101864	1	0.000101746	39	51.8912	-8.34842e-07
2	1	0	1	0	53.9458	-0.8395	-0.839589	0.000780094	1	0.000102623	39	53.8908	-6.54958e-07
2	1	0	1	0	55.9454	-0.859497	-0.859558	0.000505414	1	0.000103062	39	55.8904	-4.34433e-07
2	0	0	1	0	57.9451	-0.879493	-0.879557	0.000305464	1	0.000103008	39	0.9999	-2.68673e-07
2	1	0	0	0	59.9448	-0.89949	-0.899548	-0.000114736	1	0.000102315	39	2.9996	1.0321e-07
2	1	0	0	0	61.9444	-0.919486	-0.919543	-0.000684279	1	0.000100609	39	4.9992	6.29225e-07
2	0	0	0	0	63.944	-0.939483	-0.939517	-0.00183535	1	9.72829e-05	39	6.9988	1.72434e-06
2	0	0	1	0	65.9438	-0.95948	-0.959518	-0.00362544	1	9.11141e-05	39	8.9986	3.47868e-06
2	0	0	1	0	67.9434	-0.979476	-0.979516	-0.00682623	1	7.99068e-05	39	10.9982	6.6864e-06
2	0	0	1	0	69.943	-0.999473	-0.99953	-0.011551	1	6.0755e-05	39	12.9978	1.15455e-05
2	0	0	1	0	71.9426	-1.01947	-1.01951	-0.0165957	1	3.17727e-05	39	14.9974	1.69194e-05
2	0	0	0	0	73.9424	-1.03947	-1.03953	-0.0214382	1	-7.48728e-06	39	16.9972	2.22856e-05
2	0	0	0	0	75.942	-1.05946	-1.0595	-0.0238713	1	-5.44181e-05	39	18.9968	2.52917e-05
2	0	0	0	0	77.9416	-1.07946	-1.07951	-0.0237374	1	-0.000103426	39	20.9964	2.56248e-05
2	0	0	1	0	79.9414	-1.09946	-1.09952	-0.0247266	1	-0.000151786	39	22.9962	2.71875e-05
2	0	0	1	0	81.941	-1.11945	-1.11951	-0.0405901	1	-0.000216432	39	24.9958	4.54412e-05
2	0	0	1	0	83.9406	-1.13945	-1.1395	-0.0867174	1	-0.000333459	39	26.9954	9.88146e-05
2	0	0	1	0	85.9402	-1.15945	-1.15946	-0.117661	1	-0.000552471	39	28.995	0.000136423
2	0	0	0	0	87.94	-1.17944	-1.17946	-0.108933	1	-0.000781601	39	30.9948	0.000128483
2	0	0	0	0	89.9396	-1.19944	-1.19946	-0.10027	1	-0.000990936	39	32.9944	0.00012027
2	0	0	0	0	91.9392	-1.21943	-1.21945	-0.101669	1	-0.00119182	39	34.994	0.000123981
2	0	0	1	0	93.9389	-1.23943	-1.23947	-0.118044	1	-0.00140986	39	36.9937	0.000146312
2	0	0	1	0	95.9386	-1.25943	-1.25945	-0.157167	1	-0.0016815	39	38.9934	0.000197944
2	0	0	1	0	97.9382	-1.27942	-1.27944	-0.258131	1	-0.00208079	39	40.993	0.000330263
2	0	0	1	0	99.9378	-1.29942	-1.29943	-0.648689	1	-0.00290691	39	42.9926	0.000842929
2	0	0	0	0	101.938	-1.31942	-1.31943	-1.93721	1	-0.00527341	39	44.9924	0.002556
2	0	0	0	0	103.937	-1.33941	-1.33945	-3.66398	1	-0.0109053	39	46.992	0.0049077
2	0	0	0	1	105.847	-1.34141	-1.34147	-3.94345	2	-0.0188066	39	48.902	0.00529
2	0	0	1	1	107.847	-1.32142	-1.32143	-2.81796	2	-0.0254891	39	50.9018	0.00372375
2	0	0	1	1	109.847	-1.30142	-1.30143	-1.90807	2	-0.0301623	39	52.9014	0.00248323
2	0	0	1	1	111.846	-1.28142	-1.28145	-1.28717	2	-0.0333136	39	54.901	0.00164945
2	0	0	1	1	113.846	-1.26143	-1.26144	-0.866795	2	-0.0354343	39	56.9006	0.00109341
2	0	0	0	1	115.846	-1.24143	-1.24147	-0.607246	2	-0.0368929	39	58.9004	0.000753876
2	0	0	0	1	117.845	-1.22143	-1.22148	-0.441605	2	-0.037923	39	60.9	0.000539413
2	0	0	0	1	119.845	-1.20144	-1.20149	-0.337963	2	-0.0386924	39	62.8996	0.000406059
2	0	0	1	1	121.844	-1.18144	-1.18147	-0.265264	2	-0.0392905	39	64.8993	0.000313402
2	0	0	1	1	123.844	-1.16144	-1.16148	-0.203105	2	-0.0397569	39	66.899	0.000235903
2	0	0	1	1	125.844	-1.14145	-1.1415	-0.146299	2	-0.0401029	39	68.8986	0.000167
2	0	0	1	1	127.843	-1.12145	-1.12147	-0.100507	2	-0.0403447	39	70.8982	0.000112716
2	0	0	0	1	129.843	-1.10146	-1.10147	-0.0682225	2	-0.0405095	39	72.898	7.51451e-05
2	0	0	0	1	131.843	-1.08146	-1.08148	-0.0452355	2	-0.0406199	39	74.8976	4.89214e-05
2	0	0	0	1	133.842	-1.06146	-1.0615	-0.0277538	2	-0.0406902	39	76.8972	2.94606e-05
2	0	0	0	1	135.842	-1.04147	-1.04152	-0.0128982	2	-0.0407287	39	78.8968	1.34337e-05
2	1	0	1	1	137.842	-1.02147	-1.02152	0.0048025	2	-0.0407343	39	0.6	-4.90584e-06
2	1	0	1	1	139.841	-1.00147	-1.00152	0.00899768	2	-0.0407166	39	2.5996	-9.01138e-06
2	1	0	1	1	141.841	-0.981476	-0.981534	0.0141123	2	-0.0406921	39	4.5992	-1.38517e-05
2	1	0	1	1	143.841	-0.96148	-0.961516	0.0230854	2	-0.0406541	39	6.5989	-2.2197e-05
2	1	0	0	1	145.84	-0.941483	-0.941524	0.0364643	2	-0.0405936	39	8.5986	-3.4332e-05
2	1	0	0	1	147.84	-0.921486	-0.921519	0.0544353	2	-0.0405017	39	10.5982	-5.01631e-05
2	1	0	0	1	149.84	-0.90149	-0.90151	0.0702212	2	-0.0403741	39	12.5978	-6.33051e-05
2	1	0	1	1	151.839	-0.881493	-0.881515	0.0669392	2	-0.0402324	39	14.5976	-5.90079e-05
2	1	0	1	1	153.839	-0.861496	-0.861546	0.0573425	2	-0.0401073	39	16.5972	-4.94032e-05
2	1	0	1	1	155.839	-0.8415	-0.841535	0.0496259	2	-0.0399994	39	18.5968	-4.1762e-05
2	1	0	1	1	157.838	-0.821504	-0.821527	0.0429334	2	-0.0399057	39	20.5964	-3.52709e-05
2	1	0	0	1	159.838	-0.801507	-0.801544	0.0364834	2	-0.0398254	39	22.5962	-2.9243e-05
2	1	0	0	1	161.838	-0.78151	-0.78155	0.0313402	2	-0.0397569	39	24.5958	-2.44939e-05
2	1	0	0	1	163.837	-0.761514	-0.761555	0.0271321	2	-0.0396978	39	26.5954	-2.06626e-05
2	1	0	1	1	165.837	-0.741517	-0.741575	0.0239078	2	-0.0396461	39	28.5952	-1.77294e-05
2	1	0	1	1	167.837	-0.721521	-0.721606	0.0214608	2	-0.0396	39	30.5948	-1.54863e-05
2	1	0	1	1	169.836	-0.701524	-0.70159	0.0197297	2	-0.0395581	39	32.5944	-1.38422e-05
2	1	0	1	1	171.836	-0.681527	-0.681595	0.0184576	2	-0.0395193	39	34.594	-1.25806e-05
2	1	0	0	1	173.836	-0.661531	-0.661595	0.0176229	2	-0.0394825	39	36.5938	-1.16592e-05
2	1	0	0	1	175.835	-0.641534	-0.641587	0.017081	2	-0.0394472	39	38.5934	-1.0959e-05
2	1	0	0	1	177.835	-0.621538	-0.621614	0.016614	2	-0.0394129	39	40.593	-1.03275e-05
2	1	0	1	1	179.834	-0.601542	-0.601618	0.0163552	2	-0.0393793	39	42.5927	-9.83958e-06
2	1	0	1	1	181.834	-0.581545	-0.581603	0.0161331	2	-0.0393463	39	44.5924	-9.38309e-06
2	1	0	1	1	183.834	-0.561548	-0.561624	0.0157501	2	-0.0393139	39	46.592	-8.84565e-06
2	1	0	1	1	185.833	-0.541552	-0.541627	0.0153633	2	-0.0392821	39	48.5916	-8.32116e-06
2	1	0	0	1	187.833	-0.521555	-0.521628	0.015095	2	-0.0392511	39	50.5914	-7.874e-06
2	1	0	0	1	189.833	-0.501558	-0.501613	0.0148008	2	-0.0392207	39	52.591	-7.42429e-06
2	1	0	0	1	191.832	-0.481562	-0.48162	0.0144487	2	-0.0391911	39	54.5906	-6.95878e-06
2	1	0	1	1	193.832	-0.461564	-0.461604	0.0140529	2	-0.0391622	39	56.5903	-6.48688e-06
2	1	0	1	1	195.832	-0.441569	-0.44162	0.0137523	2	-0.0391339	39	58.59	-6.07327e-06
2	1	0	1	1	197.831	-0.421572	-0.421617	0.0136139	2	-0.0391062	39	60.5896	-5.73986e-06
2	1	0	1	1	199.831	-0.401576	-0.401627	0.0132931	2	-0.039079	39	62.5892	-5.33888e-06
2	1	0	0	1	201.831	-0.381579	-0.381645	0.0132584	2	-0.039052	39	64.589	-5.06001e-06
2	1	0	0	1	203.83	-0.361583	-0.36164	0.0129657	2	-0.0390255	39	66.5886	-4.68892e-06
2	1	0	0	1	205.83	-0.341586	-0.34163	0.0128276	2	-0.0389993	39	68.5882	-4.38229e-06
2	1	0	0	1	207.83	-0.321589	-0.321654	0.01255	2	-0.0389735	39	70.5878	-4.03676e-06
2	1	0	1	1	209.829	-0.301593	-0.301648	0.0124727	2	-0.0389479	39	72.5876	-3.76237e-06
2	1	0	0	1	211.74	-0.31759	-0.317657	0.0105312	2	-0.0389264	39	74.4978	-3.34533e-06
2	1	0	0	1	213.739	-0.337587	-0.337635	0.00911653	2	-0.0389072	39	76.4974	-3.07806e-06
2	1	0	1	1	215.739	-0.357584	-0.357634	0.00817086	2	-0.0388903	39	78.4971	-2.92218e-06
2	1	0	1	1	217.739	-0.37758	-0.377633	0.00750978	2	-0.0388752	39	80.4968	-2.83594e-06
2	1	0	1	1	219.738	-0.397576	-0.397633	0.00676607	2	-0.0388614	39	82.4964	-2.69041e-06
2	1	0	1	1	221.738	-0.417573	-0.417647	0.00637324	2	-0.0388487	39	84.496	-2.66176e-06
2	1	0	0	1	223.738	-0.43757	-0.437631	0.005858	2	-0.038837	39	86.4958	-2.56364e-06
2	1	0	0	1	225.737	-0.457566	-0.457628	0.005443	2	-0.0388262	39	88.4954	-2.49087e-06
2	1	0	0	1	227.737	-0.477563	-0.477636	0.0051878	2	-0.0388159	39	90.495	-2.47788e-06
2	1	0	0	1	229.736	-0.497559	-0.49761	0.00485826	2	-0.0388063	39	92.4946	-2.41752e-06
2	1	0	1	1	231.279	-0.513006	-0.513084	0.00549608	2	-0.0387994	39	94.0374	-2.81995e-06

File: Fig 2_np-Fe2O3_25mvs.mpt
mode	ox/red	error	control changes	counter inc.	time/s	control/V	Ewe/V	<I>/mA	cycle number	(Q-Qo)/C	I Range	step time/s	P/W
2	1	1	1	0	0.000000000000000E+000	-0.300043	-0.300044	0.575644	1	0.0000000E+000	39	0.000000000000000E+000	-0.000172719
2	1	0	0	0	1.9418	-0.348585	-0.348552	0.00468137	1	2.05294e-05	39	1.9198	-1.6317e-06
2	1	0	0	0	3.9014	-0.397577	-0.397537	0.00373655	1	2.75105e-05	39	3.8794	-1.48542e-06
2	1	0	1	0	5.8612	-0.446569	-0.446533	0.0030005	1	3.30298e-05	39	5.8392	-1.33982e-06
2	1	0	1	0	7.8208	-0.495561	-0.495517	0.00273577	1	3.76746e-05	39	7.7988	-1.35562e-06
2	1	0	1	0	9.7804	-0.544553	-0.544508	0.00242964	1	4.16318e-05	39	9.7584	-1.32296e-06
2	1	0	0	0	11.7402	-0.593544	-0.593512	0.00219436	1	4.48302e-05	39	11.7182	-1.30238e-06
2	1	0	0	0	13.6998	-0.642536	-0.642506	0.00183068	1	4.73419e-05	39	13.6778	-1.17622e-06
2	1	0	1	0	15.6596	-0.691528	-0.691482	0.00162577	1	4.92225e-05	39	15.6376	-1.12419e-06
2	1	0	1	0	17.6192	-0.74052	-0.740492	0.0010236	1	5.03549e-05	39	17.5972	-7.57965e-07
2	1	0	1	0	19.5788	-0.789512	-0.789465	0.000415124	1	5.04322e-05	39	0.5598	-3.27726e-07
2	0	0	0	0	21.5386	-0.838504	-0.838481	-0.000357645	1	4.8798e-05	39	2.5196	2.99879e-07
2	0	0	0	0	23.4982	-0.887496	-0.887483	-0.0018144	1	4.48442e-05	39	4.4792	1.61025e-06
2	0	0	1	0	25.4579	-0.93649	-0.936454	-0.00376418	1	3.77143e-05	39	6.4389	3.52498e-06
2	0	0	1	0	27.4176	-0.98548	-0.985449	-0.0156574	1	2.06247e-05	39	8.3986	1.54295e-05
2	0	0	1	0	29.3772	-1.03447	-1.03444	-0.0692326	1	-5.78864e-05	39	10.3582	7.16167e-05
2	0	0	0	0	31.337	-1.08346	-1.0834	-0.108825	1	-0.00024352	39	12.318	0.000117902
2	0	0	0	0	33.2966	-1.13246	-1.13238	-0.376276	1	-0.000570409	39	14.2776	0.000426088
2	0	0	0	0	35.2562	-1.18145	-1.1814	-0.440498	1	-0.00153456	39	16.2372	0.000520405
2	0	0	1	0	37.216	-1.23044	-1.23038	-0.409125	1	-0.00232781	39	18.197	0.000503377
2	0	0	1	0	39.1756	-1.27943	-1.27936	-0.740711	1	-0.003351	39	20.1566	0.000947638
2	0	0	0	0	41.1354	-1.32842	-1.32834	-3.71998	1	-0.00686425	39	22.1164	0.00494139
2	0	0	0	1	43.0594	-1.32342	-1.32335	-3.70459	2	-0.0161518	39	24.0404	0.00490249
2	0	0	1	1	45.0192	-1.27443	-1.27436	-1.33011	2	-0.0206917	39	26.0002	0.00169503
2	0	0	1	1	46.9788	-1.22544	-1.22539	-0.579257	2	-0.022418	39	27.9598	0.000709815
2	0	0	1	1	48.9384	-1.17645	-1.17637	-0.320348	2	-0.0232631	39	29.9194	0.000376847
2	0	0	0	1	50.8982	-1.12746	-1.1274	-0.147286	2	-0.0237099	39	31.8792	0.00016605
2	0	0	0	1	52.8578	-1.07846	-1.07839	-0.0526916	2	-0.0238883	39	33.8388	5.68218e-05
2	1	0	1	1	54.8176	-1.02947	-1.0294	0.00784522	2	-0.0239318	39	0.2	-8.07588e-06
2	1	0	1	1	56.7772	-0.980481	-0.980398	0.0384359	2	-0.0238687	39	2.1596	-3.76825e-05
2	1	0	1	1	58.7368	-0.931489	-0.931437	0.12029	2	-0.0237243	39	4.1192	-0.000112042
2	1	0	0	1	60.6966	-0.882497	-0.882455	0.203535	2	-0.0233792	39	6.079	-0.00017961
2	1	0	0	1	62.6562	-0.833505	-0.833476	0.123963	2	-0.0230591	39	8.0386	-0.00010332
2	1	0	1	1	64.6159	-0.784513	-0.784474	0.0810838	2	-0.0228604	39	9.9983	-6.36081e-05
2	1	0	1	1	66.5756	-0.735521	-0.735477	0.0579886	2	-0.0227246	39	11.958	-4.26493e-05
2	1	0	1	1	68.5352	-0.686529	-0.686493	0.0469833	2	-0.0226214	39	13.9176	-3.22537e-05
2	1	0	0	1	70.495	-0.637537	-0.637481	0.0432818	2	-0.0225319	39	15.8774	-2.75913e-05
2	1	0	0	1	72.4546	-0.588545	-0.588515	0.0426766	2	-0.0224461	39	17.837	-2.51158e-05
2	1	0	0	1	74.4142	-0.539553	-0.53952	0.0398597	2	-0.0223635	39	19.7966	-2.15051e-05
2	1	0	1	1	76.374	-0.490561	-0.490515	0.0360916	2	-0.0222876	39	21.7564	-1.77035e-05
2	1	0	1	1	78.3336	-0.441569	-0.441521	0.0328698	2	-0.022219	39	23.716	-1.45127e-05
2	1	0	0	1	80.2934	-0.392578	-0.392501	0.0311887	2	-0.0221551	39	25.6758	-1.22416e-05
2	1	0	0	1	82.253	-0.343586	-0.343544	0.030159	2	-0.0220939	39	27.6354	-1.03609e-05
2	1	0	1	1	84.1772	-0.304592	-0.304553	0.0274534	2	-0.0220357	39	29.5596	-8.36102e-06
2	1	0	0	1	86.137	-0.353584	-0.353524	0.0158053	2	-0.0219964	39	31.5194	-5.58755e-06
2	1	0	0	1	88.0966	-0.402576	-0.402544	0.0107753	2	-0.0219719	39	33.479	-4.33754e-06
2	1	0	0	1	90.0562	-0.451568	-0.451537	0.00805922	2	-0.0219548	39	35.4386	-3.63904e-06
2	1	0	1	1	92.016	-0.50056	-0.500519	0.0062289	2	-0.021942	39	37.3984	-3.11768e-06
2	1	0	1	1	93.9756	-0.549552	-0.5495	0.00512175	2	-0.0219321	39	39.358	-2.81441e-06
2	1	0	0	1	95.9354	-0.598544	-0.59849	0.00427046	2	-0.0219242	39	41.3178	-2.55583e-06
2	1	0	0	1	97.895	-0.647535	-0.647477	0.00337766	2	-0.0219182	39	43.2774	-2.18696e-06
2	1	0	0	1	99.8546	-0.696527	-0.696462	0.00268872	2	-0.0219138	39	45.237	-1.87259e-06
2	1	0	1	1	101.814	-0.745519	-0.745445	0.00127203	2	-0.0219116	39	47.1968	-9.48227e-07
2	0	0	1	1	103.774	-0.794511	-0.794439	-0.00214727	2	-0.021914	39	1.7196	1.70587e-06
2	0	0	0	1	105.734	-0.843503	-0.843434	-0.00564406	2	-0.0219238	39	3.6794	4.76039e-06
2	0	0	0	1	107.693	-0.892495	-0.892421	-0.00592028	2	-0.0219374	39	5.639	5.28339e-06
2	0	0	0	1	109.653	-0.941487	-0.941403	-0.0127182	2	-0.0219555	39	7.5986	1.19729e-05
2	0	0	1	1	111.613	-0.990479	-0.990397	-0.0287973	2	-0.021998	39	9.5584	2.85207e-05
2	0	0	1	1	113.572	-1.03947	-1.03939	-0.0728043	2	-0.022089	39	11.518	7.56723e-05
2	0	0	1	1	115.532	-1.08846	-1.08837	-0.182946	2	-0.0224054	39	13.4776	0.000199114
2	0	0	0	1	117.492	-1.13745	-1.13737	-0.152152	2	-0.0227241	39	15.4374	0.000173053
2	0	0	0	1	119.451	-1.18645	-1.18635	-0.203634	2	-0.0230558	39	17.397	0.00024158
2	0	0	1	1	121.411	-1.23544	-1.23537	-0.413114	2	-0.0236275	39	19.3568	0.000510347
2	0	0	1	1	123.371	-1.28443	-1.28435	-0.964551	2	-0.0248986	39	21.3164	0.00123882
2	0	0	1	1	125.33	-1.33342	-1.33334	-2.42904	2	-0.0279938	39	23.276	0.00323874
2	0	0	0	0	127.255	-1.31842	-1.31836	-1.97532	3	-0.0332488	39	25.2002	0.00260418
2	0	0	1	0	129.214	-1.26943	-1.26937	-0.815955	3	-0.0357945	39	27.1599	0.00103574
2	0	0	1	0	131.174	-1.22044	-1.22036	-0.395561	3	-0.0369119	39	29.1196	0.000482726
2	0	0	1	0	133.134	-1.17145	-1.17136	-0.218479	3	-0.0374936	39	31.0792	0.000255917
2	0	0	0	0	135.093	-1.12246	-1.12238	-0.0949836	3	-0.0377918	39	33.039	0.000106607
2	0	0	0	0	137.053	-1.07347	-1.07339	-0.0292013	3	-0.0379002	39	34.9986	3.13444e-05
2	1	0	0	0	139.013	-1.02447	-1.0244	0.0133193	3	-0.0379178	39	0.4398	-1.36442e-05
2	1	0	1	0	140.972	-0.975481	-0.975409	0.0235987	3	-0.0378772	39	2.3996	-2.30183e-05
2	1	0	1	0	142.932	-0.926489	-0.926426	0.0991372	3	-0.0377685	39	4.3592	-9.18433e-05
2	1	0	0	0	144.892	-0.877498	-0.877434	0.186271	3	-0.0374711	39	6.319	-0.000163441
2	1	0	0	0	146.851	-0.828506	-0.828435	0.107083	3	-0.0371767	39	8.2786	-8.87111e-05
2	1	0	0	0	148.811	-0.779514	-0.779453	0.0606647	3	-0.0370175	39	10.2382	-4.72852e-05
2	1	0	1	0	150.771	-0.730522	-0.730477	0.0404838	3	-0.036919	39	12.198	-2.95724e-05
2	1	0	1	0	152.73	-0.68153	-0.681487	0.0317043	3	-0.0368481	39	14.1576	-2.16061e-05
2	1	0	1	0	154.69	-0.632536	-0.632508	0.028656	3	-0.0367881	39	16.1173	-1.81252e-05
2	1	0	0	0	156.65	-0.583546	-0.583489	0.0270343	3	-0.0367321	39	18.077	-1.57742e-05
2	1	0	0	0	158.609	-0.534554	-0.5345	0.0247073	3	-0.0366802	39	20.0366	-1.32061e-05
2	1	0	1	0	160.569	-0.485562	-0.485492	0.0226605	3	-0.0366329	39	21.9964	-1.10015e-05
2	1	0	1	0	162.529	-0.43657	-0.436511	0.0211178	3	-0.0365891	39	23.956	-9.21814e-06
2	1	0	1	0	164.488	-0.387578	-0.38751	0.020669	3	-0.0365473	39	25.9156	-8.00944e-06
2	1	0	0	0	166.448	-0.338586	-0.338524	0.0203259	3	-0.0365063	39	27.8754	-6.88082e-06
2	1	0	1	0	168.372	-0.309591	-0.309543	0.0175554	3	-0.0364671	39	29.7996	-5.43416e-06
2	1	0	0	0	170.332	-0.358583	-0.358547	0.0109279	3	-0.036441	39	31.7594	-3.91818e-06
2	1	0	0	0	172.292	-0.407575	-0.407515	0.00794733	3	-0.0364236	39	33.719	-3.23866e-06
2	1	0	0	0	174.251	-0.456567	-0.45651	0.0063376	3	-0.0364108	39	35.6786	-2.89318e-06
2	1	0	1	0	176.211	-0.505559	-0.505518	0.00540508	3	-0.0364005	39	37.6384	-2.73237e-06
2	1	0	1	0	178.171	-0.554551	-0.554525	0.0046219	3	-0.0363918	39	39.598	-2.56296e-06
2	1	0	1	0	180.13	-0.603543	-0.603505	0.0042144	3	-0.0363843	39	41.5576	-2.54341e-06
2	1	0	0	0	182.09	-0.652535	-0.652492	0.00357085	3	-0.0363779	39	43.5174	-2.32995e-06
2	1	0	0	0	184.05	-0.701527	-0.701477	0.00323401	3	-0.0363725	39	45.477	-2.26858e-06
2	1	0	1	0	186.01	-0.750518	-0.750457	0.00230669	3	-0.0363685	39	47.4368	-1.73107e-06
2	1	0	1	0	187.969	-0.79951	-0.799434	0.00033559	3	-0.0363674	39	0.44	-2.68282e-07
2	0	0	1	0	189.929	-0.848502	-0.848462	-0.00196105	3	-0.0363712	39	2.3996	1.66387e-06
2	0	0	0	0	191.889	-0.897494	-0.89744	-0.00288398	3	-0.0363776	39	4.3594	2.5882e-06
2	0	0	0	0	193.848	-0.946486	-0.946412	-0.0106101	3	-0.036391	39	6.319	1.00415e-05
2	0	0	1	0	195.808	-0.995478	-0.995425	-0.0254225	3	-0.0364273	39	8.2788	2.53062e-05
2	0	0	1	0	197.768	-1.04447	-1.0444	-0.0831725	3	-0.0365149	39	10.2384	8.68655e-05
2	0	0	1	0	199.727	-1.09346	-1.09341	-0.109014	3	-0.0367757	39	12.198	0.000119197
2	0	0	0	0	201.687	-1.14245	-1.14238	-0.082932	3	-0.0369539	39	14.1578	9.47398e-05
2	0	0	0	0	203.647	-1.19145	-1.19139	-0.126102	3	-0.0371493	39	16.1174	0.000150236
2	0	0	0	0	205.606	-1.24044	-1.24037	-0.276917	3	-0.0375226	39	18.077	0.000343479
2	0	0	1	0	207.566	-1.28943	-1.28934	-0.685327	3	-0.0384019	39	20.0368	0.000883616
2	0	0	1	0	209.526	-1.33842	-1.33834	-1.71002	3	-0.0406056	39	21.9964	0.00228859
2	0	0	0	1	211.45	-1.31343	-1.31335	-1.10975	3	-0.0437654	39	23.9206	0.00145749
2	0	0	0	1	213.409	-1.26443	-1.26433	-0.495014	3	-0.0452367	39	25.8802	0.000625864
2	0	0	1	1	215.369	-1.21544	-1.21533	-0.269543	3	-0.0459482	39	27.84	0.000327584
2	0	0	1	1	217.329	-1.16645	-1.16636	-0.163651	3	-0.0463647	39	29.7996	0.000190876
2	0	0	1	1	219.288	-1.11746	-1.11738	-0.0715232	3	-0.0465893	39	31.7592	7.99183e-05
2	0	0	0	1	221.248	-1.06847	-1.06838	-0.0198985	3	-0.0466687	39	33.719	2.12592e-05
2	1	0	0	1	223.208	-1.01947	-1.01939	0.0143152	3	-0.0466754	39	0.6398	-1.45927e-05
2	1	0	1	1	225.168	-0.970482	-0.970406	0.0179018	3	-0.046647	39	2.5996	-1.7372e-05
2	1	0	1	1	227.127	-0.92149	-0.921417	0.0834299	3	-0.0465575	39	4.5592	-7.68737e-05
2	1	0	1	1	229.087	-0.872498	-0.872435	0.162055	3	-0.0463021	39	6.5188	-0.000141383
2	1	0	0	1	231.047	-0.823506	-0.823432	0.0884404	3	-0.0460495	39	8.4786	-7.28247e-05
2	1	0	1	1	232.191	-0.794861	-0.794783	0.0595102	3	-0.045966	39	9.6228	-4.72977e-05