Folder: Magnetite2026/Fig 3 (part 8)

File: Fig 3_RRDE-np-Fe3O4_10mvs_ring.mpt
mode	ox/red	error	control changes	counter inc.	time/s	control/V	Ewe/V	<I>/mA	cycle number	(Q-Qo)/C	I Range	step time/s	P/W
2	1	0	1	0	0.000000000000000E+000	-0.299996	-0.299957	0.278089	1	0.0000000E+000	39	0.000000000000000E+000	-8.34147e-05
2	1	0	0	0	1.8548	-0.318543	-0.318541	0.0144993	1	4.24053e-05	39	1.7998	-4.61861e-06
2	1	0	0	0	3.7544	-0.337539	-0.337555	0.0112813	1	6.58082e-05	39	3.6994	-3.80807e-06
2	1	0	0	0	5.654	-0.356536	-0.356574	0.00925596	1	8.45999e-05	39	5.599	-3.30044e-06
2	1	0	1	0	7.5538	-0.375532	-0.375547	0.00811352	1	0.000100436	39	7.4988	-3.04701e-06
2	1	0	1	0	9.4534	-0.394529	-0.394508	0.0069751	1	0.000113851	39	9.3984	-2.75173e-06
2	1	0	1	0	11.353	-0.413526	-0.413548	0.00631508	1	0.00012561	39	11.298	-2.61159e-06
2	1	0	0	0	13.2528	-0.432522	-0.432559	0.00560239	1	0.000136128	39	13.1978	-2.42336e-06
2	1	0	0	0	15.1524	-0.451519	-0.451562	0.00489212	1	0.000145361	39	15.0974	-2.2091e-06
2	1	0	0	0	17.052	-0.470516	-0.470534	0.0044636	1	0.000153542	39	16.997	-2.10027e-06
2	1	0	1	0	18.9518	-0.489512	-0.489523	0.00401184	1	0.000160715	39	18.8968	-1.96389e-06
2	1	0	1	0	20.8514	-0.508509	-0.508524	0.00346732	1	0.000167067	39	20.7964	-1.76321e-06
2	1	0	1	0	22.751	-0.527506	-0.527514	0.0031299	1	0.000172785	39	22.696	-1.65107e-06
2	1	0	0	0	24.6508	-0.546502	-0.546524	0.00291242	1	0.000177842	39	24.5958	-1.59171e-06
2	1	0	0	0	26.5504	-0.565499	-0.56552	0.00253665	1	0.000182285	39	26.4954	-1.43453e-06
2	1	0	0	0	28.45	-0.584496	-0.584509	0.00235801	1	0.000186191	39	28.395	-1.37828e-06
2	1	0	1	0	30.3498	-0.603492	-0.603492	0.00221875	1	0.00018971	39	30.2948	-1.339e-06
2	1	0	1	0	32.2494	-0.622489	-0.622479	0.00196629	1	0.000192809	39	32.1944	-1.22397e-06
2	1	0	1	0	34.149	-0.641486	-0.641496	0.00161584	1	0.000195397	39	34.094	-1.03656e-06
2	1	0	0	0	36.0488	-0.660482	-0.660485	0.00139174	1	0.000197559	39	35.9938	-9.1922e-07
2	1	0	0	0	37.9484	-0.679479	-0.679502	0.0012634	1	0.00019914	39	37.8934	-8.58484e-07
2	1	0	0	0	39.848	-0.698476	-0.698476	0.000914172	1	0.000200194	39	39.793	-6.38528e-07
2	1	0	1	0	41.7478	-0.717472	-0.717509	0.000578533	1	0.00020074	39	41.6928	-4.15103e-07
2	1	0	1	0	43.6474	-0.736469	-0.73649	9.41985e-05	1	0.000200535	39	1.0998	-6.93763e-08
2	0	0	1	0	45.547	-0.755466	-0.755477	-0.000407727	1	0.000199385	39	2.9994	3.08028e-07
2	1	0	0	0	47.4468	-0.774462	-0.774451	-0.000864854	1	0.000197126	39	4.8992	6.69787e-07
2	1	0	0	0	49.3464	-0.793459	-0.793474	-0.0017877	1	0.000193639	39	6.7988	1.4185e-06
2	1	0	0	0	51.246	-0.812456	-0.812442	-0.00240487	1	0.000188851	39	8.6984	1.95382e-06
2	0	0	1	0	53.1458	-0.831452	-0.831459	-0.00322848	1	0.000182568	39	10.5982	2.68434e-06
2	0	0	1	0	55.0454	-0.850449	-0.850441	-0.00435166	1	0.000174353	39	12.4978	3.70083e-06
2	0	0	1	0	56.945	-0.869445	-0.869452	-0.00583342	1	0.000163686	39	14.3974	5.07188e-06
2	0	0	0	0	58.8448	-0.888442	-0.888438	-0.00720883	1	0.0001501	39	16.2972	6.4046e-06
2	0	0	0	0	60.7444	-0.907439	-0.907445	-0.00821157	1	0.000134229	39	18.1968	7.45154e-06
2	0	0	0	0	62.644	-0.926435	-0.926457	-0.00909721	1	0.000116679	39	20.0964	8.42817e-06
2	0	0	1	0	64.5438	-0.945432	-0.945436	-0.0107521	1	9.67438e-05	39	21.9962	1.01654e-05
2	0	0	1	0	66.4434	-0.964429	-0.964406	-0.0135805	1	7.25952e-05	39	23.8958	1.30971e-05
2	0	0	1	0	68.343	-0.983425	-0.983419	-0.0179441	1	4.16403e-05	39	25.7954	1.76466e-05
2	0	0	0	0	70.2428	-1.00242	-1.0024	-0.024067	1	6.05261e-07	39	27.6952	2.41248e-05
2	0	0	0	0	72.1424	-1.02142	-1.02141	-0.0309787	1	-5.29769e-05	39	29.5948	3.1642e-05
2	0	0	0	0	74.042	-1.04042	-1.04042	-0.0361842	1	-0.000118292	39	31.4944	3.76466e-05
2	0	0	1	0	75.9418	-1.05941	-1.05938	-0.038601	1	-0.000190961	39	33.3942	4.08931e-05
2	0	0	1	0	77.8414	-1.07841	-1.07839	-0.0377864	1	-0.000265043	39	35.2938	4.07483e-05
2	0	0	1	0	79.741	-1.09741	-1.09737	-0.034073	1	-0.000334839	39	37.1934	3.73907e-05
2	0	0	1	0	81.6408	-1.1164	-1.11639	-0.0296493	1	-0.000396584	39	39.0932	3.31001e-05
2	0	0	0	0	83.5404	-1.1354	-1.13539	-0.0257354	1	-0.000450177	39	40.9928	2.92198e-05
2	0	0	0	0	85.44	-1.1544	-1.15438	-0.0243055	1	-0.000498233	39	42.8924	2.80579e-05
2	0	0	1	0	87.3397	-1.17339	-1.17337	-0.0257817	1	-0.000546202	39	44.7921	3.02515e-05
2	0	0	1	0	89.2394	-1.19239	-1.19242	-0.0374529	1	-0.000604811	39	46.6918	4.46596e-05
2	0	0	1	0	91.139	-1.21139	-1.21138	-0.0541294	1	-0.000694749	39	48.5914	6.5571e-05
2	0	0	1	0	93.0387	-1.23038	-1.23038	-0.0639273	1	-0.000808626	39	50.4911	7.86551e-05
2	0	0	0	0	94.9384	-1.24938	-1.24936	-0.0785984	1	-0.00094246	39	52.3908	9.81975e-05
2	0	0	0	0	96.838	-1.26838	-1.26837	-0.111463	1	-0.00111916	39	54.2904	0.000141376
2	0	0	1	0	98.7377	-1.28737	-1.28733	-0.207631	1	-0.00140609	39	56.1901	0.00026729
2	0	0	1	0	100.637	-1.30637	-1.30632	-0.689105	1	-0.00216015	39	58.0898	0.00090019
2	0	0	1	0	102.537	-1.32537	-1.32535	-1.43415	1	-0.00422286	39	59.9894	0.00190075
2	0	0	1	0	104.437	-1.34436	-1.34438	-1.75382	1	-0.00734404	39	61.889	0.0023578
2	0	0	1	1	106.157	-1.33846	-1.33845	-1.41983	2	-0.0101874	39	63.6094	0.00190038
2	0	0	1	1	108.057	-1.31947	-1.31946	-1.05281	2	-0.0125145	39	65.509	0.00138914
2	0	0	0	1	109.956	-1.30047	-1.30047	-0.799292	2	-0.0142571	39	67.4088	0.00103945
2	0	0	0	1	111.856	-1.28147	-1.28144	-0.614107	2	-0.0155855	39	69.3084	0.000786941
2	0	0	0	1	113.756	-1.26248	-1.26244	-0.488822	2	-0.0166245	39	71.208	0.00061711
2	0	0	1	1	115.655	-1.24348	-1.24346	-0.402981	2	-0.0174644	39	73.1078	0.000501092
2	0	0	1	1	117.555	-1.22448	-1.22448	-0.342129	2	-0.0181673	39	75.0074	0.00041893
2	0	0	1	1	119.455	-1.20549	-1.20548	-0.291917	2	-0.018768	39	76.907	0.000351899
2	0	0	0	1	121.354	-1.18649	-1.18649	-0.242744	2	-0.0192753	39	78.8068	0.000288014
2	0	0	0	1	123.254	-1.16749	-1.16749	-0.187177	2	-0.0196832	39	80.7064	0.000218528
2	0	0	0	1	125.154	-1.1485	-1.14849	-0.131304	2	-0.0199833	39	82.606	0.000150802
2	0	0	1	1	127.053	-1.1295	-1.12949	-0.0870033	2	-0.0201868	39	84.5058	9.82695e-05
2	0	0	1	1	128.953	-1.1105	-1.11049	-0.0551938	2	-0.0203186	39	86.4054	6.12924e-05
2	0	0	1	1	130.853	-1.09151	-1.09151	-0.0330259	2	-0.0203998	39	88.305	3.6048e-05
2	0	0	0	1	132.752	-1.07251	-1.07252	-0.0160165	2	-0.0204444	39	90.2048	1.71779e-05
2	0	0	0	1	134.652	-1.05351	-1.05353	-0.00136069	2	-0.0204591	39	92.1044	1.43352e-06
2	1	0	0	1	136.552	-1.03452	-1.03453	0.0135485	2	-0.0204458	39	1.6996	-1.40163e-05
2	1	0	1	1	138.451	-1.01552	-1.01553	0.0224703	2	-0.0204099	39	3.5994	-2.28192e-05
2	1	0	1	1	140.351	-0.996523	-0.996537	0.0345434	2	-0.0203549	39	5.499	-3.44237e-05
2	1	0	1	1	142.251	-0.977526	-0.97755	0.0492506	2	-0.0202741	39	7.3986	-4.81449e-05
2	1	0	1	1	144.15	-0.958531	-0.958537	0.064315	2	-0.0201649	39	9.2983	-6.16483e-05
2	1	0	0	1	146.05	-0.939533	-0.939577	0.0781464	2	-0.020028	39	11.198	-7.34246e-05
2	1	0	0	1	147.95	-0.920537	-0.920549	0.0881714	2	-0.0198685	39	13.0976	-8.11661e-05
2	1	0	1	1	149.849	-0.90154	-0.901525	0.0964982	2	-0.019692	39	14.9973	-8.69955e-05
2	1	0	1	1	151.749	-0.882543	-0.88255	0.106213	2	-0.0194986	39	16.897	-9.37386e-05
2	1	0	1	1	153.649	-0.863547	-0.863533	0.121557	2	-0.0192822	39	18.7966	-0.000104968
2	1	0	1	1	155.548	-0.84455	-0.844545	0.143763	2	-0.0190298	39	20.6963	-0.000121415
2	1	0	0	1	157.448	-0.825553	-0.825558	0.158884	2	-0.0187382	39	22.596	-0.000131168
2	1	0	0	1	159.348	-0.806557	-0.806564	0.151956	2	-0.0184388	39	24.4956	-0.000122562
2	1	0	1	1	161.247	-0.78756	-0.787586	0.129477	2	-0.0181687	39	26.3953	-0.000101975
2	1	0	1	1	163.147	-0.768563	-0.768553	0.100706	2	-0.0179486	39	28.295	-7.73982e-05
2	1	0	1	1	165.047	-0.749567	-0.749565	0.0719723	2	-0.0177845	39	30.1946	-5.39479e-05
2	1	0	1	1	166.946	-0.730569	-0.730586	0.0481101	2	-0.0176705	39	32.0943	-3.51485e-05
2	1	0	0	1	168.846	-0.711573	-0.71158	0.0306379	2	-0.017596	39	33.994	-2.18014e-05
2	1	0	0	1	170.746	-0.692577	-0.692596	0.0195995	2	-0.0175483	39	35.8936	-1.35745e-05
2	1	0	0	1	172.645	-0.67358	-0.673568	0.0130594	2	-0.0175172	39	37.7932	-8.79642e-06
2	1	0	1	1	174.545	-0.654583	-0.654606	0.00985833	2	-0.017495	39	39.693	-6.45333e-06
2	1	0	1	1	176.445	-0.635587	-0.635588	0.00803397	2	-0.0174774	39	41.5926	-5.10629e-06
2	1	0	1	1	178.344	-0.61659	-0.616605	0.00715325	2	-0.0174624	39	43.4922	-4.41073e-06
2	1	0	0	1	180.244	-0.597593	-0.597596	0.00635507	2	-0.017449	39	45.392	-3.79776e-06
2	1	0	0	1	182.144	-0.578597	-0.57863	0.00591734	2	-0.0174365	39	47.2916	-3.42395e-06
2	1	0	0	1	184.043	-0.5596	-0.559618	0.00575655	2	-0.0174247	39	49.1912	-3.22147e-06
2	1	0	1	1	185.943	-0.540603	-0.540621	0.00548121	2	-0.0174133	39	51.091	-2.96326e-06
2	1	0	1	1	187.843	-0.521607	-0.521618	0.00535909	2	-0.0174023	39	52.9906	-2.79539e-06
2	1	0	1	1	189.742	-0.50261	-0.502624	0.00518694	2	-0.0173917	39	54.8902	-2.60708e-06
2	1	0	0	1	191.642	-0.483613	-0.483643	0.00504237	2	-0.0173813	39	56.79	-2.43871e-06
2	1	0	0	1	193.542	-0.464617	-0.464646	0.00507423	2	-0.017371	39	58.6896	-2.35772e-06
2	1	0	0	1	195.441	-0.44562	-0.445612	0.00485136	2	-0.017361	39	60.5892	-2.16182e-06
2	1	0	1	1	197.341	-0.426624	-0.426634	0.00464734	2	-0.0173511	39	62.489	-1.98271e-06
2	1	0	1	1	199.241	-0.407627	-0.407643	0.00486231	2	-0.0173414	39	64.3886	-1.98209e-06
2	1	0	1	1	201.14	-0.38863	-0.388636	0.00470304	2	-0.0173317	39	66.2882	-1.82777e-06
2	1	0	0	1	203.04	-0.369634	-0.369641	0.00474219	2	-0.0173221	39	68.188	-1.75291e-06
2	1	0	0	1	204.94	-0.350637	-0.350642	0.00458533	2	-0.0173126	39	70.0876	-1.60781e-06
2	1	0	0	1	206.839	-0.33164	-0.331648	0.00455708	2	-0.0173032	39	71.9872	-1.51135e-06
2	1	0	1	1	208.739	-0.312644	-0.312662	0.00456808	2	-0.0172938	39	73.887	-1.42827e-06
2	1	0	0	1	210.459	-0.304545	-0.304561	0.00398092	2	-0.0172858	39	75.6072	-1.21243e-06
2	1	0	0	1	212.359	-0.323542	-0.323559	0.00351778	2	-0.0172793	39	77.5068	-1.13821e-06
2	1	0	1	1	213.55	-0.335489	-0.335466	0.00252659	2	-0.0172758	39	78.6976	-8.47585e-07

File: Fig 3_RRDE-np-Fe3O4_25mvs_disk.mpt
mode	ox/red	error	control changes	Ns changes	counter inc.	Ns	time/s	control/V	Ewe/V	<I>/mA	dQ/C	(Q-Qo)/C	I Range	Q charge/discharge/mA.h	half cycle	Energy charge/W.h	Energy discharge/W.h	Capacitance charge/µF	Capacitance discharge/µF	step time/s	Q discharge/mA.h	Q charge/mA.h	Capacity/mA.h	Efficiency/%	cycle number	P/W
2	1	1	0	0	0	0	0.1	-0.300024	-0.300249	0.0832208	8.32208e-06	8.32208e-06	41	2.31169e-06	0	6.94082e-10	0.000000000000000E+000	0.000000000000000E+000	0.000000000000000E+000	0.1	0.000000000000000E+000	2.31169e-06	2.31169e-06	0.0000000E+000	0.000000000000000E+000	-2.4987e-05
2	0	0	0	0	0	0	4	-0.300024	-0.300195	-0.000359365	2.78932e-05	2.78932e-05	41	-2.95356e-08	1	2.33506e-09	8.86694e-12	1.04622e+06	6954.73	0.4	2.95356e-08	0.000000000000000E+000	2.95356e-08	0.0000000E+000	0.000000000000000E+000	1.0788e-07
2	0	0	0	0	0	0	7.9	-0.300024	-0.300241	-0.00156903	2.33567e-05	2.33567e-05	41	-1.28968e-06	1	2.33506e-09	3.87185e-10	1.04622e+06	151841	4.3	1.28968e-06	0.000000000000000E+000	1.28968e-06	0.0000000E+000	0.000000000000000E+000	4.71088e-07
2	0	0	0	0	0	0	11.8	-0.300024	-0.300241	-0.00181363	1.64755e-05	1.64755e-05	41	-3.20111e-06	1	2.33506e-09	9.61023e-10	1.04622e+06	376882	8.2	3.20111e-06	0.000000000000000E+000	3.20111e-06	0.0000000E+000	0.000000000000000E+000	5.44525e-07
2	0	0	0	0	0	0	15.7	-0.300024	-0.300176	-0.00189965	9.09924e-06	9.09924e-06	41	-5.25009e-06	1	2.33506e-09	1.57614e-09	1.04622e+06	549081	12.1	5.25009e-06	0.000000000000000E+000	5.25009e-06	0.0000000E+000	0.000000000000000E+000	5.7023e-07
2	0	0	0	0	0	0	19.6	-0.300024	-0.300226	-0.00199257	1.48727e-06	1.48727e-06	41	-7.36452e-06	1	2.33506e-09	2.21091e-09	1.04622e+06	1.73412e+06	16	7.36452e-06	0.000000000000000E+000	7.36452e-06	0.0000000E+000	0.000000000000000E+000	5.98221e-07
2	0	0	0	0	0	0	23.5	-0.300024	-0.300157	-0.00185225	-6.09659e-06	-6.09659e-06	41	-9.47115e-06	1	2.33506e-09	2.84334e-09	1.04622e+06	637014	19.9	9.47115e-06	0.000000000000000E+000	9.47115e-06	0.0000000E+000	0.000000000000000E+000	5.55967e-07
2	0	0	0	0	0	0	27.4	-0.300024	-0.300241	-0.00123164	-1.2197e-05	-1.2197e-05	41	-1.11657e-05	1	2.33506e-09	3.35204e-09	1.04622e+06	1.31459e+06	23.8	1.11657e-05	0.000000000000000E+000	1.11657e-05	0.0000000E+000	0.000000000000000E+000	3.6979e-07
2	1	0	0	0	0	0	31.3	-0.300024	-0.30023	0.00723096	-8.64792e-06	-8.64792e-06	41	1.50914e-06	2	4.53046e-10	0.000000000000000E+000	48991.7	0.000000000000000E+000	1.7	0.000000000000000E+000	1.50914e-06	1.50914e-06	0.0000000E+000	1	-2.17095e-06
2	1	0	0	0	0	0	35.2	-0.300024	-0.300165	0.0144988	5.11576e-05	5.11576e-05	41	1.81218e-05	2	5.44002e-09	0.000000000000000E+000	1.42145e+06	0.000000000000000E+000	5.6	0.000000000000000E+000	1.81218e-05	1.81218e-05	0.0000000E+000	1	-4.35203e-06
2	1	0	0	0	0	0	39.1	-0.300024	-0.300195	0.000110294	7.20219e-05	7.20219e-05	41	2.39174e-05	2	7.17986e-09	0.000000000000000E+000	1.12593e+06	0.000000000000000E+000	9.5	0.000000000000000E+000	2.39174e-05	2.39174e-05	0.0000000E+000	1	-3.31096e-08
2	0	0	0	0	0	0	43	-0.300024	-0.300184	-0.00135979	6.84838e-05	6.84838e-05	41	-9.82794e-07	3	7.17986e-09	2.95017e-10	1.12593e+06	461936	3.8	9.82794e-07	0.000000000000000E+000	9.82794e-07	0.0000000E+000	1	4.08186e-07
2	0	0	0	0	0	0	46.9	-0.300024	-0.30018	-0.00184579	6.2022e-05	6.2022e-05	41	-2.77775e-06	3	7.17986e-09	8.33808e-10	1.12593e+06	871534	7.7	2.77775e-06	0.000000000000000E+000	2.77775e-06	0.0000000E+000	1	5.54069e-07
2	0	0	0	0	0	0	50.8	-0.300024	-0.300211	-0.00193439	5.46658e-05	5.46658e-05	41	-4.82113e-06	3	7.17986e-09	1.44721e-09	1.12593e+06	907124	11.6	4.82113e-06	0.000000000000000E+000	4.82113e-06	0.0000000E+000	1	5.80726e-07
2	0	0	0	0	0	0	54.7	-0.300024	-0.300207	-0.00176361	4.72163e-05	4.72163e-05	41	-6.89045e-06	3	7.17986e-09	2.06841e-09	1.12593e+06	1.62249e+06	15.5	6.89045e-06	0.000000000000000E+000	6.89045e-06	0.0000000E+000	1	5.29448e-07
2	1	0	0	0	0	0	58.6	-0.300024	-0.300165	0.00114386	4.36421e-05	4.36421e-05	41	1.13185e-07	4	3.39747e-11	0.000000000000000E+000	21296.5	0.000000000000000E+000	0.6	0.000000000000000E+000	1.13185e-07	1.13185e-07	0.0000000E+000	2	-3.43347e-07
2	1	0	0	0	0	0	62.5	-0.300024	-0.300126	0.00566602	6.14431e-05	6.14431e-05	41	5.05792e-06	4	1.51827e-09	0.000000000000000E+000	953161	0.000000000000000E+000	4.5	0.000000000000000E+000	5.05792e-06	5.05792e-06	0.0000000E+000	2	-1.70052e-06
2	0	0	0	0	0	0	66.4	-0.300024	-0.300207	-6.57222e-05	7.14575e-05	7.14575e-05	41	-1.82562e-09	5	2.35381e-09	5.47893e-13	670838	0.000000000000000E+000	0.000000000000000E+000	1.82562e-09	0.000000000000000E+000	1.82562e-09	0.0000000E+000	2	1.97303e-08
2	0	0	0	0	0	0	70.3	-0.300024	-0.300188	-0.00164878	6.71866e-05	6.71866e-05	41	-1.1882e-06	5	2.35381e-09	3.56683e-10	670838	223916	3.9	1.1882e-06	0.000000000000000E+000	1.1882e-06	0.0000000E+000	2	4.94944e-07
2	0	0	0	0	0	0	74.2	-0.300024	-0.300237	-0.00198468	5.99644e-05	5.99644e-05	41	-3.19435e-06	5	2.35381e-09	9.58912e-10	670838	375720	7.8	3.19435e-06	0.000000000000000E+000	3.19435e-06	0.0000000E+000	2	5.95875e-07
2	0	0	0	0	0	0	78.1	-0.300024	-0.300172	-0.00210489	5.19613e-05	5.19613e-05	41	-5.41744e-06	5	2.35381e-09	1.62627e-09	670838	566584	11.7	5.41744e-06	0.000000000000000E+000	5.41744e-06	0.0000000E+000	2	6.3183e-07
2	0	0	0	0	0	0	82	-0.300024	-0.300169	-0.00217898	4.35809e-05	4.35809e-05	41	-7.74534e-06	5	2.35381e-09	2.32508e-09	670838	729233	15.6	7.74534e-06	0.000000000000000E+000	7.74534e-06	0.0000000E+000	2	6.54062e-07
2	0	0	0	0	0	0	85.9	-0.300024	-0.300149	-0.00218594	3.50415e-05	3.50415e-05	41	-1.01174e-05	5	2.35381e-09	3.03712e-09	670838	635208	19.5	1.01174e-05	0.000000000000000E+000	1.01174e-05	0.0000000E+000	2	6.56108e-07
2	0	0	0	0	0	0	89.8	-0.300024	-0.300149	-0.00216969	2.65501e-05	2.65501e-05	41	-1.24761e-05	5	2.35381e-09	3.74515e-09	670838	783296	23.4	1.24761e-05	0.000000000000000E+000	1.24761e-05	0.0000000E+000	2	6.5123e-07
2	0	0	0	0	0	0	93.7	-0.300024	-0.300165	-0.00211446	1.81735e-05	1.81735e-05	41	-1.4803e-05	5	2.35381e-09	4.44364e-09	670838	1.26728e+06	27.3	1.4803e-05	0.000000000000000E+000	1.4803e-05	0.0000000E+000	2	6.34686e-07
2	0	0	0	0	0	0	97.6	-0.300024	-0.300184	-0.00208392	9.98414e-06	9.98414e-06	41	-1.70778e-05	5	2.35381e-09	5.12651e-09	670838	2.67912e+06	31.2	1.70778e-05	0.000000000000000E+000	1.70778e-05	0.0000000E+000	2	6.25559e-07
2	0	0	0	0	0	0	101.5	-0.300024	-0.300195	-0.00205502	1.92775e-06	1.92775e-06	41	-1.93157e-05	5	2.35381e-09	5.79831e-09	670838	6.07618e+06	35.1	1.93157e-05	0.000000000000000E+000	1.93157e-05	0.0000000E+000	2	6.16909e-07
2	0	0	0	0	0	0	105.4	-0.300024	-0.300241	-0.00199897	-5.9655e-06	-5.9655e-06	41	-2.15082e-05	5	2.35381e-09	6.45648e-09	670838	2.24944e+06	39	2.15082e-05	0.000000000000000E+000	2.15082e-05	0.0000000E+000	2	6.00175e-07
2	0	0	0	0	0	0	109.3	-0.300024	-0.300222	-0.00189476	-1.36069e-05	-1.36069e-05	41	-2.36308e-05	5	2.35381e-09	7.09369e-09	670838	5.55352e+06	42.9	2.36308e-05	0.000000000000000E+000	2.36308e-05	0.0000000E+000	2	5.68849e-07
2	0	0	0	0	0	0	113.2	-0.300024	-0.300245	-0.00153548	-2.04694e-05	-2.04694e-05	41	-2.55371e-05	5	2.35381e-09	7.66593e-09	670838	2.40435e+06	46.8	2.55371e-05	0.000000000000000E+000	2.55371e-05	0.0000000E+000	2	4.61021e-07
2	0	0	0	0	0	0	117.1	-0.300024	-0.300203	-0.00109683	-2.54666e-05	-2.54666e-05	41	-2.69252e-05	5	2.35381e-09	8.08264e-09	670838	2.54098e+07	50.7	2.69252e-05	0.000000000000000E+000	2.69252e-05	0.0000000E+000	2	3.29271e-07
2	0	0	0	0	0	0	121	-0.300024	-0.300176	-0.000938163	-2.92865e-05	-2.92865e-05	41	-2.79863e-05	5	2.35381e-09	8.40118e-09	670838	3.29496e+06	54.6	2.79863e-05	0.000000000000000E+000	2.79863e-05	0.0000000E+000	2	2.81614e-07
2	0	0	0	0	0	0	124.9	-0.300024	-0.300165	-0.00154691	-3.44386e-05	-3.44386e-05	41	-2.94174e-05	5	2.35381e-09	8.83081e-09	670838	2.51843e+06	58.5	2.94174e-05	0.000000000000000E+000	2.94174e-05	0.0000000E+000	2	4.64329e-07
2	0	0	0	0	0	0	128.8	-0.300024	-0.300214	-0.0016324	-4.05514e-05	-4.05514e-05	41	-3.11154e-05	5	2.35381e-09	9.34055e-09	670838	1.4625e+07	62.4	3.11154e-05	0.000000000000000E+000	3.11154e-05	0.0000000E+000	2	4.90069e-07
2	0	0	0	0	0	0	132.7	-0.300024	-0.300191	-0.00171285	-4.71062e-05	-4.71062e-05	41	-3.29362e-05	5	2.35381e-09	9.88717e-09	670838	7.75548e+06	66.3	3.29362e-05	0.000000000000000E+000	3.29362e-05	0.0000000E+000	2	5.14183e-07
2	0	0	0	0	0	0	136.6	-0.300024	-0.300222	-0.0017025	-5.38086e-05	-5.38086e-05	41	-3.4798e-05	5	2.35381e-09	1.04461e-08	670838	8.17793e+06	70.2	3.4798e-05	0.000000000000000E+000	3.4798e-05	0.0000000E+000	2	5.11127e-07
2	0	0	0	0	0	0	140.5	-0.300024	-0.300165	-0.000629423	-5.90475e-05	-5.90475e-05	41	-3.62532e-05	5	2.35381e-09	1.08829e-08	670838	3.10364e+06	74.1	3.62532e-05	0.000000000000000E+000	3.62532e-05	0.0000000E+000	2	1.88931e-07
2	1	0	0	0	0	0	144.4	-0.300024	-0.300191	0.00208348	-5.5589e-05	-5.5589e-05	41	1.03721e-06	6	3.11366e-10	0.000000000000000E+000	162715	0.000000000000000E+000	2.9	0.000000000000000E+000	1.03721e-06	1.03721e-06	0.0000000E+000	3	-6.25442e-07
2	0	0	0	0	0	0	148.3	-0.300024	-0.300199	-0.000354535	-5.13675e-05	-5.13675e-05	41	-3.15893e-08	7	6.72869e-10	9.48349e-12	162422	9911.34	0.5	3.15893e-08	0.000000000000000E+000	3.15893e-08	0.0000000E+000	3	1.06431e-07
2	0	0	0	0	0	0	152.2	-0.300024	-0.300195	-0.00157282	-5.58018e-05	-5.58018e-05	41	-1.26333e-06	7	6.72869e-10	3.79246e-10	162422	596115	4.4	1.26333e-06	0.000000000000000E+000	1.26333e-06	0.0000000E+000	3	4.72153e-07
2	0	0	0	0	0	0	156.1	-0.300024	-0.300188	-0.00195555	-6.25659e-05	-6.25659e-05	41	-3.14224e-06	7	6.72869e-10	9.43278e-10	162422	0.000000000000000E+000	8.3	3.14224e-06	0.000000000000000E+000	3.14224e-06	0.0000000E+000	3	5.87033e-07
2	0	0	0	0	0	0	160	-0.300024	-0.30013	-0.00195142	-6.99836e-05	-6.99836e-05	41	-5.20271e-06	7	6.72869e-10	1.56177e-09	162422	326476	12.2	5.20271e-06	0.000000000000000E+000	5.20271e-06	0.0000000E+000	3	5.85681e-07
2	0	0	0	0	0	0	163.9	-0.300024	-0.300218	-0.00211785	-7.78138e-05	-7.78138e-05	41	-7.3778e-06	7	6.72869e-10	2.21469e-09	162422	868624	16.1	7.3778e-06	0.000000000000000E+000	7.3778e-06	0.0000000E+000	3	6.35818e-07
2	0	0	0	0	0	0	167.8	-0.300024	-0.300176	-0.00224407	-8.64545e-05	-8.64545e-05	41	-9.77799e-06	7	6.72869e-10	2.93518e-09	162422	3.0679e+06	20	9.77799e-06	0.000000000000000E+000	9.77799e-06	0.0000000E+000	3	6.73615e-07
2	0	0	0	0	0	0	170.044	-0.300024	-0.300226	-0.00221827	-9.14413e-05	-9.14413e-05	41	-1.11632e-05	7	6.72869e-10	3.351e-09	162422	1.05103e+06	22.2436	1.11632e-05	0.000000000000000E+000	1.11632e-05	498.035	3	6.65983e-07