Folder: Magnetite2026/Fig 3 (part 7)

File: Fig 3_RRDE-np-Fe3O4_5mvs_1.mpt
mode	ox/red	error	control changes	counter inc.	time/s	control/V	Ewe/V	<I>/mA	cycle number	(Q-Qo)/C	I Range	step time/s	P/W
2	1	1	0	0	0.000000000000000E+000	-0.299997	-0.299849	0.0587073	1	0.0000000E+000	39	0.000000000000000E+000	-1.76033e-05
2	0	0	1	0	6.7106	-0.33355	-0.333349	0.000225714	1	5.34426e-06	39	6.6005	-7.52416e-08
2	1	0	0	0	13.5112	-0.367553	-0.36734	-2.07214e-05	1	5.55402e-06	39	2.0001	7.61181e-09
2	1	0	1	0	20.3118	-0.401556	-0.401351	-0.000125797	1	4.63268e-06	39	8.8007	5.04888e-08
2	0	0	0	0	27.1124	-0.435559	-0.435344	-0.000290919	1	2.92268e-06	39	15.6013	1.2665e-07
2	0	0	1	0	33.913	-0.469562	-0.469349	-0.000398951	1	-9.48056e-08	39	22.4019	1.87247e-07
2	0	0	0	0	40.7136	-0.503565	-0.503352	-0.000417613	1	-3.64618e-06	39	29.2025	2.10206e-07
2	0	0	1	0	47.5142	-0.537568	-0.537346	-0.000682589	1	-8.66009e-06	39	36.0031	3.66786e-07
2	0	0	0	0	54.3148	-0.571571	-0.571343	-0.000792976	1	-1.45205e-05	39	42.8037	4.53061e-07
2	0	0	1	0	61.1154	-0.605574	-0.605328	-0.000979992	1	-2.14784e-05	39	49.6043	5.93216e-07
2	1	0	0	0	67.916	-0.639577	-0.639342	-0.00100068	1	-2.9219e-05	39	56.4049	6.39777e-07
2	0	0	1	0	74.7166	-0.67358	-0.673338	-0.00113835	1	-3.71686e-05	39	63.2055	7.66497e-07
2	0	0	0	0	81.5172	-0.707583	-0.707381	-0.00134752	1	-4.65244e-05	39	70.0061	9.53211e-07
2	0	0	1	0	88.3178	-0.741586	-0.741354	-0.00242415	1	-6.17817e-05	39	76.8067	1.79715e-06
2	0	0	0	0	95.1184	-0.775589	-0.775351	-0.00320262	1	-8.18395e-05	39	83.6073	2.48316e-06
2	0	0	1	0	101.919	-0.809592	-0.809354	-0.00441889	1	-0.000108638	39	90.4079	3.57644e-06
2	0	0	0	0	108.72	-0.843595	-0.84337	-0.00632081	1	-0.000145913	39	97.2085	5.33078e-06
2	0	0	1	0	115.52	-0.877598	-0.877397	-0.0078313	1	-0.000196437	39	104.009	6.87116e-06
2	0	0	0	0	122.321	-0.911601	-0.911399	-0.00918156	1	-0.000254908	39	110.81	8.36806e-06
2	0	0	1	0	129.121	-0.945604	-0.945404	-0.0117937	1	-0.000327016	39	117.61	1.11498e-05
2	0	0	0	0	135.922	-0.979607	-0.97939	-0.0158776	1	-0.000421877	39	124.411	1.55504e-05
2	0	0	1	0	142.723	-1.01361	-1.01341	-0.0174935	1	-0.000541175	39	131.211	1.77281e-05
2	0	0	1	0	149.523	-1.04761	-1.0474	-0.0120069	1	-0.000643526	39	138.012	1.25761e-05
2	0	0	1	0	156.324	-1.08162	-1.08139	-0.00950447	1	-0.000716072	39	144.813	1.02781e-05
2	0	0	1	0	163.124	-1.11562	-1.11541	-0.0088636	1	-0.00077913	39	151.613	9.88651e-06
2	0	0	1	0	169.925	-1.14962	-1.14938	-0.00891138	1	-0.000840534	39	158.414	1.02426e-05
2	0	0	1	0	176.726	-1.18363	-1.18335	-0.0327454	1	-0.000943095	39	165.214	3.87493e-05
2	0	0	1	0	183.526	-1.21763	-1.21738	-0.042992	1	-0.00120061	39	172.015	5.23374e-05
2	0	0	0	0	190.327	-1.25163	-1.25135	-0.0865588	1	-0.00161007	39	178.816	0.000108315
2	0	0	1	0	197.127	-1.28563	-1.28539	-0.216894	1	-0.0025738	39	185.616	0.000278795
2	0	0	0	0	203.928	-1.31964	-1.31937	-0.637855	1	-0.00509139	39	192.417	0.00084157
2	0	0	0	1	210.509	-1.34744	-1.34721	-2.13499	2	-0.0142618	39	198.998	0.00287627
2	0	0	1	1	217.31	-1.31344	-1.31318	-1.27663	2	-0.0257288	39	205.799	0.00167645
2	0	0	0	1	224.11	-1.27943	-1.27917	-0.785106	2	-0.0325264	39	212.599	0.00100429
2	0	0	1	1	230.911	-1.24543	-1.24519	-0.562819	2	-0.0370117	39	219.4	0.000700813
2	0	0	0	1	237.712	-1.21143	-1.21119	-0.429934	2	-0.0403679	39	226.2	0.000520731
2	0	0	1	1	244.512	-1.17742	-1.17719	-0.288807	2	-0.0428229	39	233.001	0.000339983
2	0	0	0	1	251.313	-1.14342	-1.14319	-0.146105	2	-0.0442745	39	239.802	0.000167026
2	0	0	1	1	258.113	-1.10942	-1.10918	-0.0652383	2	-0.0449566	39	246.602	7.23612e-05
2	0	0	0	1	264.914	-1.07542	-1.07518	-0.0262199	2	-0.0452511	39	253.403	2.81912e-05
2	1	0	1	1	271.715	-1.04141	-1.04119	0.00151491	2	-0.0453346	39	0.2	-1.57731e-06
2	1	0	0	1	278.515	-1.00741	-1.00717	0.0284712	2	-0.0452328	39	7.0006	-2.86753e-05
2	1	0	1	1	285.316	-0.973407	-0.97318	0.0556767	2	-0.0449383	39	13.8012	-5.41834e-05
2	1	0	0	1	292.116	-0.939404	-0.939171	0.0635697	2	-0.0445155	39	20.6018	-5.97028e-05
2	1	0	1	1	298.917	-0.905401	-0.905166	0.0591338	2	-0.0440948	39	27.4024	-5.35259e-05
2	1	0	0	1	305.718	-0.871398	-0.871176	0.0213391	2	-0.0437976	39	34.203	-1.85901e-05
2	1	0	1	1	312.518	-0.837395	-0.837177	0.0123615	2	-0.043706	39	41.0036	-1.03487e-05
2	1	0	0	1	319.319	-0.803392	-0.803158	0.0182539	2	-0.0436001	39	47.8042	-1.46608e-05
2	1	0	1	1	326.119	-0.769389	-0.769151	0.014499	2	-0.0434822	39	54.6048	-1.1152e-05
2	1	0	0	1	332.92	-0.735386	-0.735171	0.00794936	2	-0.0434069	39	61.4054	-5.84414e-06
2	1	0	1	1	339.721	-0.701383	-0.701163	0.00502699	2	-0.0433638	39	68.206	-3.52474e-06
2	1	0	0	1	346.521	-0.66738	-0.667154	0.00330121	2	-0.0433353	39	75.0066	-2.20241e-06
2	1	0	1	1	353.322	-0.633377	-0.633153	0.00253445	2	-0.043315	39	81.8072	-1.6047e-06
2	1	0	0	1	360.122	-0.599374	-0.599144	0.00200754	2	-0.0432991	39	88.6078	-1.20281e-06
2	1	0	1	1	366.923	-0.565371	-0.565139	0.00170692	2	-0.043286	39	95.4084	-9.64648e-07
2	1	0	0	1	373.724	-0.531368	-0.531146	0.00144953	2	-0.0432747	39	102.209	-7.69912e-07
2	1	0	1	1	380.524	-0.497365	-0.497148	0.00129917	2	-0.0432649	39	109.01	-6.45877e-07
2	1	0	0	1	387.325	-0.463362	-0.463152	0.00119058	2	-0.0432561	39	115.81	-5.51418e-07
2	1	0	1	1	394.125	-0.429359	-0.429132	0.00103146	2	-0.0432482	39	122.611	-4.42631e-07
2	1	0	0	1	400.926	-0.395356	-0.395112	0.000962549	2	-0.0432409	39	129.411	-3.80314e-07
2	1	0	1	1	407.727	-0.361353	-0.361111	0.00090445	2	-0.0432341	39	136.212	-3.26607e-07
2	1	0	0	1	414.527	-0.32735	-0.32711	0.000871057	2	-0.0432277	39	143.013	-2.84931e-07
2	0	0	0	1	421.108	-0.305548	-0.305323	0.000435213	2	-0.043222	39	149.594	-1.3288e-07
2	1	0	1	1	427.909	-0.339551	-0.339311	3.86616e-05	2	-0.0432209	39	0.000000000000000E+000	-1.31183e-08
2	0	0	0	1	434.71	-0.373554	-0.373331	-0.000154679	2	-0.0432218	39	6.6006	5.77465e-08
2	0	0	1	1	441.51	-0.407557	-0.407318	-0.000259821	2	-0.0432236	39	13.4012	1.0583e-07
2	0	0	0	1	448.311	-0.44156	-0.441316	-0.000334794	2	-0.0432261	39	20.2018	1.4775e-07
2	1	0	1	1	455.111	-0.475563	-0.475327	-0.000329759	2	-0.0432287	39	27.0024	1.56743e-07
2	1	0	0	1	461.912	-0.509566	-0.509334	-0.000300772	2	-0.0432314	39	33.803	1.53193e-07
2	0	0	1	1	468.713	-0.543569	-0.54332	-0.000370353	2	-0.0432345	39	40.6036	2.0122e-07
2	1	0	0	1	475.513	-0.577572	-0.577331	-0.000534187	2	-0.0432382	39	47.4042	3.08403e-07
2	0	0	1	1	482.314	-0.611575	-0.611319	-0.000619598	2	-0.0432426	39	54.2048	3.78772e-07
2	0	0	0	1	489.114	-0.645578	-0.645336	-0.000668575	2	-0.0432475	39	61.0054	4.31455e-07
2	0	0	1	1	495.915	-0.679581	-0.679369	-0.000796034	2	-0.043253	39	67.806	5.40801e-07
2	0	0	0	1	502.716	-0.713584	-0.713355	-0.000948661	2	-0.0432595	39	74.6066	6.76732e-07
2	0	0	1	1	509.516	-0.747587	-0.747368	-0.0012086	2	-0.0432673	39	81.4072	9.03268e-07
2	0	0	0	1	516.317	-0.78159	-0.781337	-0.00152395	2	-0.0432772	39	88.2078	1.19071e-06
2	0	0	1	1	523.117	-0.815593	-0.815367	-0.00178629	2	-0.043289	39	95.0084	1.45648e-06
2	0	0	0	1	529.918	-0.849596	-0.84936	-0.00211762	2	-0.0433028	39	101.809	1.79862e-06
2	0	0	1	1	536.719	-0.883599	-0.883374	-0.00241233	2	-0.0433189	39	108.61	2.13099e-06
2	0	0	0	1	543.519	-0.917602	-0.917378	-0.00258978	2	-0.0433366	39	115.41	2.37581e-06
2	0	0	1	1	550.32	-0.951605	-0.951376	-0.00270752	2	-0.0433553	39	122.211	2.57587e-06
2	0	0	0	1	557.12	-0.985608	-0.985373	-0.00281881	2	-0.0433749	39	129.011	2.77758e-06
2	0	0	1	1	563.921	-1.01961	-1.01938	-0.00299036	2	-0.0433957	39	135.812	3.04832e-06
2	0	0	0	1	570.722	-1.05361	-1.05339	-0.00327121	2	-0.0434177	39	142.613	3.44586e-06
2	0	0	1	1	577.522	-1.08762	-1.0874	-0.00355732	2	-0.0434415	39	149.413	3.86822e-06
2	0	0	0	1	584.323	-1.12162	-1.1214	-0.0038886	2	-0.0434675	39	156.214	4.36067e-06
2	0	0	1	1	591.123	-1.15562	-1.15539	-0.00424586	2	-0.0434958	39	163.014	4.90564e-06
2	0	0	0	1	597.924	-1.18963	-1.1894	-0.00559387	2	-0.0435283	39	169.815	6.65335e-06
2	0	0	1	1	604.725	-1.22363	-1.22341	-0.00840081	2	-0.043576	39	176.616	1.02776e-05
2	0	0	0	1	611.525	-1.25763	-1.2574	-0.0172188	2	-0.043658	39	183.416	2.16509e-05
2	0	0	1	1	618.326	-1.29164	-1.2914	-0.03782	2	-0.0438386	39	190.217	4.88408e-05
2	0	0	0	1	625.126	-1.32564	-1.32541	-0.0746241	2	-0.0442079	39	197.017	9.89073e-05
2	0	0	0	0	631.708	-1.34144	-1.34119	-0.123658	3	-0.0449113	39	203.599	0.000165849
2	0	0	1	0	638.508	-1.30744	-1.3072	-0.0888317	3	-0.0456299	39	210.399	0.00011612
2	0	0	0	0	645.309	-1.27343	-1.2732	-0.0639262	3	-0.0461429	39	217.2	8.13909e-05
2	0	0	1	0	652.109	-1.23943	-1.23918	-0.0463271	3	-0.0465148	39	224	5.74074e-05
2	0	0	0	0	658.91	-1.20543	-1.2052	-0.0314825	3	-0.0467777	39	230.801	3.79426e-05
2	0	0	1	0	665.711	-1.17142	-1.17118	-0.0198543	3	-0.046949	39	237.602	2.32529e-05
2	0	0	0	0	672.511	-1.13742	-1.13715	-0.0125282	3	-0.0470562	39	244.402	1.42465e-05
2	0	0	1	0	679.312	-1.10342	-1.10318	-0.00766826	3	-0.047123	39	251.203	8.45947e-06
2	0	0	0	0	686.112	-1.06942	-1.06917	-0.00459429	3	-0.0471629	39	258.003	4.91206e-06
2	0	0	1	0	692.913	-1.03541	-1.03516	-0.00211105	3	-0.0471854	39	264.804	2.18527e-06
2	1	0	0	0	699.714	-1.00141	-1.00116	0.000671954	3	-0.0471893	39	2.0002	-6.72735e-07
2	1	0	1	0	706.514	-0.967406	-0.967174	0.00440639	3	-0.0471736	39	8.8008	-4.26174e-06
2	1	0	0	0	713.315	-0.933403	-0.933142	0.0091243	3	-0.0471204	39	15.6014	-8.51426e-06
2	1	0	1	0	720.115	-0.8994	-0.89918	0.000272847	3	-0.0470882	39	22.402	-2.45338e-07
2	0	0	0	0	726.916	-0.865397	-0.865173	-0.000491313	3	-0.0470901	39	5.8006	4.25071e-07
2	1	0	1	0	733.717	-0.831394	-0.831156	-0.000335034	3	-0.0470923	39	12.6012	2.78466e-07
2	0	0	0	0	740.517	-0.797391	-0.797164	-0.000116695	3	-0.0470933	39	19.4018	9.30248e-08
2	1	0	1	0	747.318	-0.763388	-0.763153	0.000112645	3	-0.047093	39	4.0004	-8.59653e-08
2	1	0	0	0	754.118	-0.729385	-0.729149	0.00044602	3	-0.0470906	39	10.801	-3.25215e-07
2	1	0	1	0	760.919	-0.695382	-0.695169	0.000873792	3	-0.0470854	39	17.6016	-6.07433e-07
2	1	0	0	0	767.72	-0.661379	-0.66115	0.000756319	3	-0.0470794	39	24.4022	-5.0004e-07
2	1	0	1	0	774.52	-0.627376	-0.627142	0.000769324	3	-0.0470739	39	31.2028	-4.82475e-07
2	1	0	0	0	781.321	-0.593373	-0.59312	0.000602744	3	-0.0470687	39	38.0034	-3.57499e-07
2	1	0	0	0	783.648	-0.581722	-0.58146	0.000506824	3	-0.0470672	39	40.3306	-2.94698e-07

File: Fig 3_RRDE-np-Fe3O4_5mvs_ring_1.mpt
mode	ox/red	error	control changes	Ns changes	counter inc.	Ns	time/s	control/V	Ewe/V	<I>/mA	dQ/C	(Q-Qo)/C	I Range	Q charge/discharge/mA.h	half cycle	Energy charge/W.h	Energy discharge/W.h	Capacitance charge/µF	Capacitance discharge/µF	step time/s	Q discharge/mA.h	Q charge/mA.h	Capacity/mA.h	Efficiency/%	cycle number	P/W
2	0	1	1	0	0	0	0.1	-0.300043	-0.299946	-0.106232	-1.06232e-05	-1.06232e-05	52	-2.95089e-06	0	0.000000000000000E+000	8.85108e-10	0.000000000000000E+000	0.000000000000000E+000	0.1	2.95089e-06	0.000000000000000E+000	2.95089e-06	0.0000000E+000	0.000000000000000E+000	3.18639e-05
2	0	0	1	0	0	0	18.4	-0.300043	-0.299972	-0.000819647	-5.00158e-05	-5.00158e-05	52	-1.38933e-05	0	0.000000000000000E+000	4.16737e-09	0.000000000000000E+000	1.86888e+06	18.4	1.38933e-05	0.000000000000000E+000	1.38933e-05	0.0000000E+000	0.000000000000000E+000	2.45871e-07
2	0	0	1	0	0	0	36.7	-0.300043	-0.299984	-0.000630527	-6.30002e-05	-6.30002e-05	52	-1.75e-05	0	0.000000000000000E+000	5.24921e-09	0.000000000000000E+000	1.64893e+06	36.7	1.75e-05	0.000000000000000E+000	1.75e-05	0.0000000E+000	0.000000000000000E+000	1.89148e-07
2	0	0	1	0	0	0	55	-0.300043	-0.299995	-0.000846637	-7.81426e-05	-7.81426e-05	52	-2.17063e-05	0	0.000000000000000E+000	6.51079e-09	0.000000000000000E+000	1.57385e+06	55	2.17063e-05	0.000000000000000E+000	2.17063e-05	0.0000000E+000	0.000000000000000E+000	2.53987e-07
2	0	0	1	0	0	0	73.3	-0.300043	-0.299892	-0.000553705	-9.10274e-05	-9.10274e-05	52	-2.52854e-05	0	0.000000000000000E+000	7.58426e-09	0.000000000000000E+000	1.70255e+06	73.3	2.52854e-05	0.000000000000000E+000	2.52854e-05	0.0000000E+000	0.000000000000000E+000	1.66052e-07
2	0	0	1	0	0	0	91.6	-0.300043	-0.299908	-0.000792002	-0.000103463	-0.000103463	52	-2.87398e-05	0	0.000000000000000E+000	8.62029e-09	0.000000000000000E+000	2.71011e+06	91.6	2.87398e-05	0.000000000000000E+000	2.87398e-05	0.0000000E+000	0.000000000000000E+000	2.37527e-07
2	0	0	1	0	0	0	109.9	-0.300043	-0.299934	-0.000732194	-0.000117599	-0.000117599	52	-3.26665e-05	0	0.000000000000000E+000	9.79801e-09	0.000000000000000E+000	1.0276e+07	109.9	3.26665e-05	0.000000000000000E+000	3.26665e-05	0.0000000E+000	0.000000000000000E+000	2.1961e-07
2	0	0	1	0	0	0	128.2	-0.300043	-0.299953	-0.000587533	-0.000130133	-0.000130133	52	-3.61479e-05	0	0.000000000000000E+000	1.08422e-08	0.000000000000000E+000	1.69904e+07	128.2	3.61479e-05	0.000000000000000E+000	3.61479e-05	0.0000000E+000	0.000000000000000E+000	1.76233e-07
2	1	0	1	0	0	0	146.5	-0.300043	-0.299885	0.00175845	-0.00011096	-0.00011096	52	5.86745e-06	2	1.75978e-09	0.000000000000000E+000	614713	0.000000000000000E+000	13	0.000000000000000E+000	5.86745e-06	5.86745e-06	0.0000000E+000	1	-5.27332e-07
2	0	0	1	0	0	0	164.8	-0.300043	-0.299923	-5.55456e-05	-0.000103825	-0.000103825	52	-4.29479e-08	5	6.06259e-15	1.28815e-11	0.000000000000000E+000	3373.17	3.9	4.29479e-08	0.000000000000000E+000	4.29479e-08	0.0000000E+000	2	1.66594e-08
2	0	0	1	0	0	0	183.1	-0.300043	-0.299843	-0.000658853	-0.000108636	-0.000108636	52	-1.25094e-06	7	6.63574e-12	3.75177e-10	1389.8	39289.8	8.2	1.25094e-06	0.000000000000000E+000	1.25094e-06	0.0000000E+000	3	1.97552e-07
2	0	0	1	0	0	0	201.4	-0.300043	-0.299988	-0.000642104	-0.000120683	-0.000120683	52	-4.59712e-06	7	6.63574e-12	1.37878e-09	1389.8	541770	26.5	4.59712e-06	0.000000000000000E+000	4.59712e-06	0.0000000E+000	3	1.92623e-07
2	0	0	1	0	0	0	219.7	-0.300043	-0.299923	-0.000658268	-0.000132119	-0.000132119	52	-7.7738e-06	7	6.63574e-12	2.33152e-09	1389.8	813729	44.8	7.7738e-06	0.000000000000000E+000	7.7738e-06	0.0000000E+000	3	1.9743e-07
2	0	0	1	0	0	0	238	-0.300043	-0.299938	-0.000695755	-0.000144437	-0.000144437	52	-1.11954e-05	7	6.63574e-12	3.35775e-09	1389.8	2.10977e+06	63.1	1.11954e-05	0.000000000000000E+000	1.11954e-05	0.0000000E+000	3	2.08684e-07
2	0	0	1	0	0	0	256.3	-0.300043	-0.299961	-0.000712847	-0.000157393	-0.000157393	52	-1.47945e-05	7	6.63574e-12	4.43718e-09	1389.8	1.39618e+07	81.4	1.47945e-05	0.000000000000000E+000	1.47945e-05	0.0000000E+000	3	2.13826e-07
2	1	0	1	0	0	0	274.6	-0.300043	-0.299888	0.0015151	-0.000161123	-0.000161123	52	1.1098e-06	8	3.32833e-10	0.000000000000000E+000	523671	0.000000000000000E+000	5.3	0.000000000000000E+000	1.1098e-06	1.1098e-06	0.0000000E+000	4	-4.54362e-07
2	1	0	1	0	0	0	292.9	-0.300043	-0.299854	0.00505481	-9.07674e-05	-9.07674e-05	52	2.06531e-05	8	6.19411e-09	0.000000000000000E+000	1.76937e+06	0.000000000000000E+000	23.6	0.000000000000000E+000	2.06531e-05	2.06531e-05	0.0000000E+000	4	-1.5157e-06
2	0	0	1	0	0	0	311.2	-0.300043	-0.299957	-0.000575522	-4.98455e-05	-4.98455e-05	52	-6.56522e-07	9	9.80024e-09	1.96903e-10	1.02525e+07	36395.2	5.4	6.56522e-07	0.000000000000000E+000	6.56522e-07	0.0000000E+000	4	1.72632e-07
2	0	0	1	0	0	0	329.5	-0.300043	-0.299873	-0.000687464	-6.15116e-05	-6.15116e-05	52	-3.8971e-06	9	9.80024e-09	1.16879e-09	1.02525e+07	734405	23.7	3.8971e-06	0.000000000000000E+000	3.8971e-06	0.0000000E+000	4	2.06152e-07
2	0	0	1	0	0	0	347.8	-0.300043	-0.2999	-0.000720113	-7.45235e-05	-7.45235e-05	52	-7.51151e-06	9	9.80024e-09	2.25283e-09	1.02525e+07	3.54438e+06	42	7.51151e-06	0.000000000000000E+000	7.51151e-06	0.0000000E+000	4	2.15962e-07
2	0	0	1	0	0	0	366.1	-0.300043	-0.299904	-0.000732736	-8.78242e-05	-8.78242e-05	52	-1.12061e-05	9	9.80024e-09	3.36094e-09	1.02525e+07	3.52515e+06	60.3	1.12061e-05	0.000000000000000E+000	1.12061e-05	0.0000000E+000	4	2.1975e-07
2	0	0	1	0	0	0	384.4	-0.300043	-0.299946	-0.000730415	-0.000101203	-0.000101203	52	-1.49226e-05	9	9.80024e-09	4.47558e-09	1.02525e+07	1.00423e+06	78.6	1.49226e-05	0.000000000000000E+000	1.49226e-05	0.0000000E+000	4	2.19085e-07
2	0	0	1	0	0	0	402.7	-0.300043	-0.299942	-0.000728877	-0.00011461	-0.00011461	52	-1.86467e-05	9	9.80024e-09	5.59249e-09	1.02525e+07	1.35201e+06	96.9	1.86467e-05	0.000000000000000E+000	1.86467e-05	0.0000000E+000	4	2.18621e-07
2	0	0	1	0	0	0	421	-0.300043	-0.2999	-0.000726179	-0.000127971	-0.000127971	52	-2.2358e-05	9	9.80024e-09	6.70552e-09	1.02525e+07	1.05498e+07	115.2	2.2358e-05	0.000000000000000E+000	2.2358e-05	0.0000000E+000	4	2.17781e-07
2	0	0	1	0	0	0	439.3	-0.300043	-0.299919	-0.000719916	-0.000141261	-0.000141261	52	-2.60496e-05	9	9.80024e-09	7.81269e-09	1.02525e+07	3.50802e+06	133.5	2.60496e-05	0.000000000000000E+000	2.60496e-05	0.0000000E+000	4	2.15916e-07
2	0	0	1	0	0	0	457.6	-0.300043	-0.299862	-0.000717666	-0.000154466	-0.000154466	52	-2.97178e-05	9	9.80024e-09	8.91276e-09	1.02525e+07	3.49881e+06	151.8	2.97178e-05	0.000000000000000E+000	2.97178e-05	0.0000000E+000	4	2.15201e-07
2	0	0	1	0	0	0	475.9	-0.300043	-0.299896	-0.000713207	-0.00016759	-0.00016759	52	-3.33634e-05	9	9.80024e-09	1.00061e-08	1.02525e+07	3.14856e+07	170.1	3.33634e-05	0.000000000000000E+000	3.33634e-05	0.0000000E+000	4	2.13888e-07
2	0	0	1	0	0	0	494.2	-0.300043	-0.299911	-0.000709755	-0.000180626	-0.000180626	52	-3.69846e-05	9	9.80024e-09	1.10921e-08	1.02525e+07	6.96971e+06	188.4	3.69846e-05	0.000000000000000E+000	3.69846e-05	0.0000000E+000	4	2.12863e-07
2	0	0	1	0	0	0	512.5	-0.300043	-0.299904	-0.000696461	-0.000193547	-0.000193547	52	-4.05735e-05	9	9.80024e-09	1.21685e-08	1.02525e+07	1.27633e+07	206.7	4.05735e-05	0.000000000000000E+000	4.05735e-05	0.0000000E+000	4	2.08871e-07
2	0	0	1	0	0	0	530.8	-0.300043	-0.299969	-0.000692129	-0.000206264	-0.000206264	52	-4.41062e-05	9	9.80024e-09	1.32279e-08	1.02525e+07	2.07876e+06	225	4.41062e-05	0.000000000000000E+000	4.41062e-05	0.0000000E+000	4	2.07617e-07
2	0	0	1	0	0	0	549.1	-0.300043	-0.29985	-0.000673238	-0.000218785	-0.000218785	52	-4.75842e-05	9	9.80024e-09	1.4271e-08	1.02525e+07	4.07659e+06	243.3	4.75842e-05	0.000000000000000E+000	4.75842e-05	0.0000000E+000	4	2.01871e-07
2	0	0	1	0	0	0	567.4	-0.300043	-0.299869	-0.000659776	-0.000230976	-0.000230976	52	-5.09705e-05	9	9.80024e-09	1.52866e-08	1.02525e+07	7.99614e+06	261.6	5.09705e-05	0.000000000000000E+000	5.09705e-05	0.0000000E+000	4	1.97847e-07
2	0	0	1	0	0	0	585.7	-0.300043	-0.299911	-0.000630621	-0.000242767	-0.000242767	52	-5.42458e-05	9	9.80024e-09	1.62689e-08	1.02525e+07	1.02226e+07	279.9	5.42458e-05	0.000000000000000E+000	5.42458e-05	0.0000000E+000	4	1.8913e-07
2	0	0	1	0	0	0	604	-0.300043	-0.29993	-0.000656942	-0.000254251	-0.000254251	52	-5.74359e-05	9	9.80024e-09	1.72256e-08	1.02525e+07	5.4161e+06	298.2	5.74359e-05	0.000000000000000E+000	5.74359e-05	0.0000000E+000	4	1.97037e-07
2	0	0	1	0	0	0	622.3	-0.300043	-0.299904	-0.00065444	-0.000266295	-0.000266295	52	-6.07813e-05	9	9.80024e-09	1.82289e-08	1.02525e+07	1.91201e+07	316.5	6.07813e-05	0.000000000000000E+000	6.07813e-05	0.0000000E+000	4	1.96269e-07
2	0	0	1	0	0	0	640.6	-0.300043	-0.299915	-0.00064068	-0.000277996	-0.000277996	52	-6.40318e-05	9	9.80024e-09	1.92038e-08	1.02525e+07	1.00582e+07	334.8	6.40318e-05	0.000000000000000E+000	6.40318e-05	0.0000000E+000	4	1.9215e-07
2	0	0	1	0	0	0	658.9	-0.300043	-0.299911	-0.000660875	-0.000289935	-0.000289935	52	-6.73482e-05	9	9.80024e-09	2.01985e-08	1.02525e+07	1.26917e+07	353.1	6.73482e-05	0.000000000000000E+000	6.73482e-05	0.0000000E+000	4	1.98204e-07
2	0	0	1	0	0	0	677.2	-0.300043	-0.299919	-0.000629906	-0.00030195	-0.00030195	52	-7.06855e-05	9	9.80024e-09	2.11994e-08	1.02525e+07	9.51898e+06	371.4	7.06855e-05	0.000000000000000E+000	7.06855e-05	0.0000000E+000	4	1.88921e-07
2	0	0	1	0	0	0	695.5	-0.300043	-0.299946	-0.000512844	-0.000312639	-0.000312639	52	-7.36546e-05	9	9.80024e-09	2.20899e-08	1.02525e+07	4.95941e+06	389.7	7.36546e-05	0.000000000000000E+000	7.36546e-05	0.0000000E+000	4	1.53825e-07
2	0	0	1	0	0	0	713.8	-0.300043	-0.299831	-0.000397895	-0.000320256	-0.000320256	52	-7.57706e-05	9	9.80024e-09	2.27244e-08	1.02525e+07	4.4626e+06	408	7.57706e-05	0.000000000000000E+000	7.57706e-05	0.0000000E+000	4	1.19301e-07
2	0	0	1	0	0	0	732.1	-0.300043	-0.299873	-0.000665125	-0.000331498	-0.000331498	52	-7.88932e-05	9	9.80024e-09	2.36609e-08	1.02525e+07	1.48674e+07	426.3	7.88932e-05	0.000000000000000E+000	7.88932e-05	0.0000000E+000	4	1.99453e-07
2	0	0	1	0	0	0	750.4	-0.300043	-0.299885	-0.000674497	-0.000343787	-0.000343787	52	-8.23068e-05	9	9.80024e-09	2.46847e-08	1.02525e+07	3.88372e+07	444.6	8.23068e-05	0.000000000000000E+000	8.23068e-05	0.0000000E+000	4	2.02271e-07
2	0	0	1	0	0	0	768.7	-0.300043	-0.299911	-0.00067795	-0.00035615	-0.00035615	52	-8.57412e-05	9	9.80024e-09	2.57147e-08	1.02525e+07	1.61579e+07	462.9	8.57412e-05	0.000000000000000E+000	8.57412e-05	0.0000000E+000	4	2.03325e-07
2	0	0	1	0	0	0	782.718	-0.300043	-0.299907	-0.000675581	-0.000365676	-0.000365676	52	-8.83872e-05	9	9.80024e-09	2.65083e-08	1.02525e+07	2.08532e+07	476.918	8.83872e-05	0.000000000000000E+000	8.83872e-05	270.489	4	2.02612e-07